,Timestamps,Temperature,Humidity,Pressure,Distance,Accx,Accy,Accz,Gyrox,Gyroy,Gyroz,Magnox,Magnoy,Magnoz
0,2022-01-11 01:27:42.192536,25.4,61.1,997.0,20.0,1.74,0.28,3.73,3.71,-1.68,5.18,-312.75,34.0,-421.38
1,2022-01-11 01:27:42.239432,25.4,61.1,997.0,107.0,1.74,0.28,3.73,4.2,1.05,5.74,-319.25,38.25,-411.25
2,2022-01-11 01:27:42.302258,25.4,61.2,997.0,110.0,1.74,0.28,3.73,4.2,1.05,5.74,-316.5,46.75,-417.63
3,2022-01-11 01:27:42.348817,25.4,61.2,997.0,114.0,1.73,0.29,3.74,4.55,3.57,5.6,-325.25,36.75,-405.5
4,2022-01-11 01:27:42.426946,25.4,60.8,997.0,112.0,1.73,0.28,3.74,5.25,0.77,5.32,-318.25,43.25,-404.63
5,2022-01-11 01:27:42.489446,25.4,60.8,997.0,111.0,1.73,0.28,3.75,5.25,-1.19,4.62,-312.5,44.0,-419.63
6,2022-01-11 01:27:42.551951,25.4,60.8,997.0,111.0,1.73,0.28,3.75,5.25,-1.19,4.62,-318.25,43.0,-408.0
7,2022-01-11 01:27:42.583198,25.4,61.0,997.0,111.0,1.73,0.29,3.75,4.69,-4.76,3.92,-314.0,41.5,-418.88
8,2022-01-11 01:27:42.645689,25.4,61.0,997.0,114.0,1.73,0.28,3.75,4.06,-2.45,5.25,-323.0,36.75,-398.5
9,2022-01-11 01:27:42.708192,25.4,61.0,997.0,112.0,1.73,0.29,3.75,3.85,-3.15,4.69,-321.75,45.0,-415.88
10,2022-01-11 01:27:42.770697,25.4,61.0,997.0,110.0,1.73,0.29,3.75,3.85,-3.15,4.69,-317.5,41.5,-412.75
11,2022-01-11 01:27:42.833202,25.4,60.7,997.0,111.0,1.73,0.28,3.74,3.64,-4.9,5.11,-315.75,41.0,-418.5
12,2022-01-11 01:27:42.895705,25.4,60.7,997.0,114.0,1.73,0.28,3.74,3.99,-2.38,4.97,-322.25,36.25,-410.88
13,2022-01-11 01:27:42.958209,25.4,60.7,997.0,113.0,1.73,0.29,3.73,3.71,-2.8,4.9,-320.5,38.75,-405.75
14,2022-01-11 01:27:43.020716,25.4,61.3,997.0,113.0,1.73,0.29,3.73,3.71,-2.8,4.9,-321.75,46.75,-399.25
15,2022-01-11 01:27:43.051968,25.4,61.3,997.0,112.0,1.73,0.28,3.73,4.2,0.21,5.25,-323.75,43.25,-399.63
16,2022-01-11 01:27:43.114470,25.4,61.1,997.0,112.0,1.73,0.28,3.74,4.62,0.77,5.11,-316.75,34.75,-413.0
17,2022-01-11 01:27:43.176977,25.4,61.1,997.0,111.0,1.73,0.28,3.73,4.13,-3.08,4.34,-321.0,36.5,-403.25
18,2022-01-11 01:27:43.239477,25.4,61.1,997.0,109.0,1.73,0.28,3.73,4.13,-3.08,4.34,-317.5,50.0,-418.63
19,2022-01-11 01:27:43.301981,25.3,59.9,997.0,112.0,1.73,0.29,3.73,4.13,-4.27,4.27,-318.5,41.0,-400.13
20,2022-01-11 01:27:43.364484,25.3,59.9,997.0,110.0,1.73,0.28,3.73,3.43,-2.59,5.04,-313.75,40.25,-416.25
21,2022-01-11 01:27:43.426989,25.3,61.0,997.0,112.0,1.73,0.29,3.73,3.71,-3.71,4.69,-324.25,40.75,-411.13
22,2022-01-11 01:27:43.489494,25.3,61.0,997.0,113.0,1.73,0.29,3.73,3.71,-3.71,4.69,-313.25,41.0,-402.38
23,2022-01-11 01:27:43.520745,25.4,60.7,997.0,110.0,1.73,0.28,3.73,3.71,-1.19,5.11,-318.0,39.25,-410.88
24,2022-01-11 01:27:43.583497,25.4,60.7,997.0,112.0,1.73,0.28,3.73,3.92,-1.33,4.76,-316.25,42.0,-402.63
25,2022-01-11 01:27:43.645754,25.4,60.7,997.0,112.0,1.73,0.28,3.73,3.99,-2.52,4.62,-311.75,36.75,-415.63
26,2022-01-11 01:27:43.708257,25.4,60.7,997.0,116.0,1.73,0.28,3.73,3.99,-2.52,4.62,-318.25,34.5,-400.5
27,2022-01-11 01:27:43.770779,25.4,60.7,997.0,113.0,1.73,0.29,3.73,3.57,-3.71,4.2,-319.5,39.25,-416.75
28,2022-01-11 01:27:43.833284,25.3,60.7,997.0,110.0,1.72,0.28,3.73,3.15,-2.38,5.18,-316.75,42.5,-406.25
29,2022-01-11 01:27:43.895788,25.3,60.7,997.0,112.0,1.73,0.28,3.74,3.71,-1.61,4.69,-317.75,42.0,-412.25
30,2022-01-11 01:27:43.942666,25.4,61.1,997.0,114.0,1.73,0.28,3.74,3.71,-1.61,4.69,-322.0,38.5,-417.13
31,2022-01-11 01:27:44.005157,25.4,61.1,997.0,111.0,1.73,0.28,3.74,3.71,-2.59,4.97,-312.5,39.25,-408.88
32,2022-01-11 01:27:44.067669,25.4,61.1,997.0,111.0,1.73,0.28,3.74,3.71,-2.17,4.83,-323.75,41.5,-408.75
33,2022-01-11 01:27:44.130164,25.4,60.9,997.0,109.0,1.73,0.29,3.74,3.43,-3.57,4.62,-327.75,37.75,-410.25
34,2022-01-11 01:27:44.177048,25.4,60.9,997.0,109.0,1.73,0.29,3.74,3.43,-3.57,4.62,-320.25,40.0,-411.38
35,2022-01-11 01:27:44.239539,25.5,60.7,997.0,110.0,1.72,0.28,3.73,3.29,-1.68,5.67,-318.75,41.75,-392.5
36,2022-01-11 01:27:44.302058,25.5,60.7,997.0,110.0,1.73,0.29,3.74,4.76,-0.84,4.48,-317.0,40.5,-408.63
37,2022-01-11 01:27:44.364560,25.5,60.7,997.0,110.0,1.73,0.29,3.74,4.76,-0.84,4.48,-323.5,40.25,-400.5
38,2022-01-11 01:27:44.411425,25.4,60.4,997.0,109.0,1.72,0.28,3.74,4.34,-1.19,5.46,-315.75,47.25,-411.13
39,2022-01-11 01:27:44.474026,25.4,60.4,997.0,110.0,1.72,0.29,3.74,3.64,-3.08,4.69,-330.25,40.75,-390.63
40,2022-01-11 01:27:44.536540,25.5,61.0,997.0,112.0,1.72,0.28,3.74,3.29,-3.85,5.32,-320.5,44.75,-413.25
41,2022-01-11 01:27:44.583423,25.5,61.0,997.0,112.0,1.72,0.28,3.74,3.29,-3.85,5.32,-323.0,44.5,-412.75
42,2022-01-11 01:27:44.645914,25.4,60.9,997.0,108.0,1.72,0.28,3.74,3.36,-5.74,3.99,-323.0,44.0,-409.63
43,2022-01-11 01:27:44.708419,25.4,60.9,997.0,110.0,1.72,0.28,3.74,3.78,-2.87,4.9,-319.75,38.5,-405.5
44,2022-01-11 01:27:44.770923,25.4,60.9,997.0,109.0,1.72,0.28,3.74,3.99,-2.94,4.41,-320.25,39.5,-400.25
45,2022-01-11 01:27:44.817800,25.4,60.7,997.0,115.0,1.72,0.28,3.74,3.99,-2.94,4.41,-328.0,40.0,-411.0
46,2022-01-11 01:27:44.895932,25.4,60.7,997.0,111.0,1.72,0.28,3.74,3.92,-4.13,3.99,-321.0,42.75,-399.75
47,2022-01-11 01:27:44.942808,25.4,60.9,997.0,110.0,1.72,0.28,3.74,4.34,-1.89,5.18,-321.0,47.75,-418.13
48,2022-01-11 01:27:45.005325,25.4,60.9,997.0,113.0,1.72,0.29,3.74,4.48,1.54,5.25,-326.25,43.25,-402.63
49,2022-01-11 01:27:45.067829,25.4,60.5,997.0,113.0,1.72,0.29,3.74,4.48,1.54,5.25,-319.75,46.75,-410.0
50,2022-01-11 01:27:45.130340,25.4,60.5,997.0,111.0,1.72,0.28,3.75,4.9,-1.05,4.69,-328.25,40.5,-402.63
51,2022-01-11 01:27:45.192826,25.4,60.5,997.0,111.0,1.72,0.28,3.74,3.43,-6.58,4.41,-317.0,38.0,-412.25
52,2022-01-11 01:27:45.255748,25.4,60.8,997.0,112.0,1.72,0.29,3.74,2.66,-7.21,4.55,-320.0,43.0,-410.75
53,2022-01-11 01:27:45.286596,25.4,60.8,997.0,112.0,1.72,0.29,3.74,2.66,-7.21,4.55,-325.25,42.5,-401.63
54,2022-01-11 01:27:45.349103,25.4,60.6,997.0,112.0,1.73,0.28,3.74,3.36,-5.11,4.48,-319.0,40.0,-414.0
55,2022-01-11 01:27:45.411606,25.4,60.6,997.0,112.0,1.73,0.28,3.74,4.2,-2.31,4.76,-321.5,37.5,-409.5
56,2022-01-11 01:27:45.474110,25.4,60.6,997.0,112.0,1.72,0.28,3.74,4.41,0.7,4.97,-316.75,42.75,-415.5
57,2022-01-11 01:27:45.520969,25.5,63.0,997.0,114.0,1.72,0.28,3.74,4.41,0.7,4.97,-320.75,43.5,-412.13
58,2022-01-11 01:27:45.599099,25.5,63.0,997.0,110.0,1.72,0.28,3.74,4.69,2.38,5.6,-316.5,46.25,-418.88
59,2022-01-11 01:27:45.661616,25.3,60.8,997.0,112.0,1.72,0.29,3.74,4.55,-0.91,4.06,-320.25,45.5,-403.5
60,2022-01-11 01:27:45.724107,25.3,60.8,997.0,111.0,1.72,0.28,3.74,3.92,-2.8,4.83,-318.0,38.0,-404.38
61,2022-01-11 01:27:45.755359,25.4,60.7,997.0,112.0,1.72,0.28,3.74,3.92,-2.8,4.83,-329.25,41.5,-393.25
62,2022-01-11 01:27:45.817864,25.4,60.7,997.0,111.0,1.72,0.29,3.75,4.27,-2.1,4.69,-325.0,42.75,-398.13
63,2022-01-11 01:27:45.880367,25.4,60.7,997.0,113.0,1.72,0.28,3.74,3.99,-4.34,4.76,-321.25,45.0,-414.25
64,2022-01-11 01:27:45.943422,25.5,60.7,997.0,112.0,1.72,0.29,3.74,3.71,-4.06,4.41,-324.25,39.5,-410.13
65,2022-01-11 01:27:46.005787,25.5,60.7,997.0,110.0,1.72,0.29,3.74,3.71,-4.06,4.41,-320.75,38.0,-417.88
66,2022-01-11 01:27:46.067896,25.5,60.8,997.0,112.0,1.72,0.29,3.74,3.78,-1.82,4.97,-328.5,41.25,-403.75
67,2022-01-11 01:27:46.130385,25.5,60.8,997.0,110.0,1.72,0.28,3.74,3.92,-2.73,4.41,-321.75,44.25,-413.38
68,2022-01-11 01:27:46.192887,25.5,60.7,997.0,111.0,1.72,0.29,3.74,3.85,-3.15,4.55,-329.0,43.25,-406.25
69,2022-01-11 01:27:46.224140,25.5,60.7,997.0,112.0,1.72,0.29,3.74,3.85,-3.15,4.55,-321.25,41.75,-415.25
70,2022-01-11 01:27:46.286643,25.5,60.7,997.0,112.0,1.72,0.29,3.74,3.71,-3.92,4.48,-325.25,35.25,-412.25
71,2022-01-11 01:27:46.349147,25.5,60.7,997.0,111.0,1.72,0.28,3.74,3.36,-4.48,4.62,-311.75,39.5,-407.25
72,2022-01-11 01:27:46.411651,25.5,60.7,997.0,113.0,1.72,0.28,3.74,3.36,-4.48,4.62,-330.5,37.5,-403.75
73,2022-01-11 01:27:46.474155,25.6,60.8,997.0,112.0,1.72,0.28,3.74,3.36,-4.76,4.76,-319.0,39.25,-415.88
74,2022-01-11 01:27:46.536673,25.6,60.8,997.0,114.0,1.72,0.29,3.74,2.94,-4.83,5.04,-318.0,39.25,-417.38
75,2022-01-11 01:27:46.599181,25.6,60.8,997.0,115.0,1.72,0.28,3.74,2.8,-4.41,4.76,-321.0,37.5,-403.63
76,2022-01-11 01:27:46.646288,25.5,61.4,997.0,113.0,1.72,0.28,3.74,2.8,-4.41,4.76,-321.25,40.75,-412.75
77,2022-01-11 01:27:46.708563,25.5,61.4,997.0,112.0,1.72,0.28,3.74,3.64,-1.61,5.11,-313.25,32.75,-398.5
78,2022-01-11 01:27:46.771065,25.5,60.8,997.0,111.0,1.72,0.28,3.74,3.85,-2.52,4.55,-319.25,40.5,-415.5
79,2022-01-11 01:27:46.833569,25.5,60.8,997.0,112.0,1.72,0.29,3.74,3.78,-2.45,4.69,-323.5,35.5,-392.38
80,2022-01-11 01:27:46.880429,25.4,60.6,997.0,114.0,1.72,0.29,3.74,3.78,-2.45,4.69,-313.25,38.5,-408.38
81,2022-01-11 01:27:46.958560,25.4,60.6,997.0,109.0,1.72,0.28,3.75,3.64,-2.17,4.69,-319.25,43.25,-408.5
82,2022-01-11 01:27:47.021552,25.4,60.6,997.0,113.0,1.72,0.28,3.75,3.29,-3.71,4.76,-323.75,35.5,-397.5
83,2022-01-11 01:27:47.085567,25.5,60.6,997.0,114.0,1.72,0.28,3.74,3.29,-3.08,4.69,-314.75,35.0,-411.5
84,2022-01-11 01:27:47.122574,25.5,60.6,997.0,113.0,1.72,0.28,3.74,3.29,-3.08,4.69,-323.5,39.25,-409.75
85,2022-01-11 01:27:47.191589,25.5,60.7,997.0,114.0,1.72,0.28,3.74,3.43,-3.01,4.9,-322.75,38.0,-412.63
86,2022-01-11 01:27:47.245602,25.5,60.7,997.0,114.0,1.72,0.28,3.74,3.36,-2.66,4.97,-328.5,37.25,-396.88
87,2022-01-11 01:27:47.308616,25.4,60.6,997.0,113.0,1.72,0.28,3.74,3.29,-2.8,4.9,-319.25,36.75,-413.75
88,2022-01-11 01:27:47.368629,25.4,60.6,997.0,111.0,1.72,0.28,3.74,3.29,-2.8,4.9,-317.5,39.5,-397.88
89,2022-01-11 01:27:47.426660,25.4,60.6,997.0,113.0,1.72,0.28,3.74,3.36,-2.87,4.83,-323.25,34.75,-409.0
90,2022-01-11 01:27:47.489656,25.5,60.7,997.0,112.0,1.72,0.28,3.74,3.36,-2.59,4.76,-332.5,30.5,-401.25
91,2022-01-11 01:27:47.530667,25.5,60.7,997.0,111.0,1.72,0.28,3.74,3.71,-2.8,4.76,-324.75,32.75,-398.5
92,2022-01-11 01:27:47.589679,25.4,60.6,997.0,110.0,1.72,0.28,3.74,3.71,-2.8,4.76,-330.5,38.75,-403.38
93,2022-01-11 01:27:47.651692,25.4,60.6,997.0,113.0,1.72,0.28,3.74,3.71,-2.73,4.69,-321.0,38.25,-403.0
94,2022-01-11 01:27:47.714706,25.4,60.6,997.0,113.0,1.72,0.28,3.74,4.06,-3.29,4.55,-324.5,38.75,-406.63
95,2022-01-11 01:27:47.765730,25.6,60.6,997.0,112.0,1.72,0.28,3.74,4.13,-3.15,4.48,-326.25,46.0,-411.88
96,2022-01-11 01:27:47.833733,25.6,60.6,997.0,112.0,1.72,0.28,3.74,4.13,-3.15,4.48,-326.0,43.5,-401.88
97,2022-01-11 01:27:47.888745,25.5,60.5,997.0,112.0,1.72,0.28,3.74,4.2,-3.01,4.48,-325.5,42.5,-392.0
98,2022-01-11 01:27:47.961371,25.5,60.5,997.0,109.0,1.72,0.28,3.74,4.13,-3.08,4.48,-328.0,42.25,-417.25
99,2022-01-11 01:27:48.005909,25.5,60.7,997.0,112.0,1.72,0.28,3.74,3.92,-3.08,4.62,-327.25,35.5,-400.75
100,2022-01-11 01:27:48.052787,25.5,60.7,997.0,109.0,1.72,0.28,3.74,3.92,-3.08,4.62,-323.25,40.0,-409.75
101,2022-01-11 01:27:48.115282,25.5,60.7,997.0,113.0,1.72,0.28,3.74,3.92,-2.66,4.69,-330.25,43.75,-404.38
102,2022-01-11 01:27:48.177777,25.5,60.6,997.0,115.0,1.72,0.28,3.74,4.2,-3.22,4.69,-328.75,38.5,-403.38
103,2022-01-11 01:27:48.240480,25.5,60.6,997.0,115.0,1.72,0.28,3.74,4.06,-3.15,4.69,-326.5,34.5,-398.13
104,2022-01-11 01:27:48.302973,25.5,60.5,997.0,113.0,1.72,0.28,3.74,4.06,-3.15,4.69,-327.75,41.25,-411.5
105,2022-01-11 01:27:48.365296,25.5,60.5,997.0,114.0,1.72,0.29,3.74,3.71,-2.45,4.76,-329.75,38.25,-414.13
106,2022-01-11 01:27:48.427788,25.5,60.4,997.0,112.0,1.72,0.28,3.74,3.92,-3.08,4.55,-326.0,40.0,-399.75
107,2022-01-11 01:27:48.474667,25.5,60.4,997.0,111.0,1.72,0.28,3.74,3.92,-3.08,4.62,-324.0,34.0,-406.13
108,2022-01-11 01:27:48.521556,25.5,60.4,997.0,112.0,1.72,0.28,3.74,4.06,-2.94,4.62,-329.25,34.5,-397.0
109,2022-01-11 01:27:48.584061,25.5,60.6,996.9,112.0,1.72,0.28,3.74,4.06,-2.94,4.69,-320.0,33.25,-409.38
110,2022-01-11 01:27:48.646565,25.5,60.6,996.9,113.0,1.72,0.28,3.74,3.99,-3.08,4.55,-318.5,34.25,-413.88
111,2022-01-11 01:27:48.709708,25.6,60.4,996.9,111.0,1.72,0.28,3.74,3.99,-3.08,4.55,-321.5,31.75,-409.13
112,2022-01-11 01:27:48.771573,25.6,60.4,997.0,116.0,1.72,0.28,3.74,3.92,-3.22,4.69,-332.5,36.25,-392.38
113,2022-01-11 01:27:48.834082,25.6,60.4,997.0,114.0,1.72,0.29,3.74,3.92,-3.22,4.62,-322.0,37.25,-413.88
114,2022-01-11 01:27:48.896568,25.5,61.6,997.0,113.0,1.72,0.28,3.74,3.85,-3.01,4.69,-319.5,37.0,-407.5
115,2022-01-11 01:27:48.927833,25.5,61.6,997.0,109.0,1.72,0.28,3.74,3.85,-3.01,4.69,-329.0,33.5,-404.0
116,2022-01-11 01:27:48.990337,25.5,60.5,997.0,112.0,1.72,0.28,3.74,3.78,-3.08,4.76,-321.5,33.25,-413.25
117,2022-01-11 01:27:49.052840,25.5,60.5,997.0,112.0,1.72,0.29,3.74,3.85,-3.01,4.62,-322.75,37.25,-398.25
118,2022-01-11 01:27:49.115345,25.5,60.4,997.0,112.0,1.72,0.28,3.74,3.78,-3.08,4.69,-321.25,36.25,-406.13
119,2022-01-11 01:27:49.177849,25.5,60.4,997.0,115.0,1.72,0.28,3.74,3.78,-3.08,4.69,-317.25,40.0,-406.88
120,2022-01-11 01:27:49.240353,25.5,60.4,997.0,113.0,1.72,0.29,3.75,3.85,-2.8,4.83,-319.25,34.75,-415.75
121,2022-01-11 01:27:49.302844,25.5,60.5,997.0,114.0,1.72,0.28,3.74,3.5,-2.94,4.62,-321.75,40.75,-408.5
122,2022-01-11 01:27:49.349725,25.5,60.5,997.0,113.0,1.72,0.29,3.75,3.78,-3.08,4.62,-320.5,47.0,-421.13
123,2022-01-11 01:27:49.412245,25.5,60.4,997.0,111.0,1.72,0.29,3.75,3.78,-3.08,4.62,-320.25,44.75,-414.5
124,2022-01-11 01:27:49.474752,25.5,60.4,997.0,114.0,1.72,0.28,3.74,3.43,-3.08,4.62,-321.5,47.5,-416.75
125,2022-01-11 01:27:49.537252,25.6,60.4,997.0,114.0,1.72,0.28,3.75,3.92,-3.36,4.69,-329.25,43.25,-408.75
126,2022-01-11 01:27:49.584135,25.6,60.4,997.0,117.0,1.72,0.28,3.74,3.57,-3.08,4.62,-321.25,44.0,-397.63
127,2022-01-11 01:27:49.646634,25.6,60.4,997.0,112.0,1.72,0.28,3.74,3.57,-3.08,4.62,-313.75,41.25,-410.88
128,2022-01-11 01:27:49.709138,25.5,60.4,997.0,113.0,1.72,0.28,3.74,3.57,-3.01,4.83,-323.25,39.5,-399.63
129,2022-01-11 01:27:49.771635,25.5,60.4,997.0,114.0,1.72,0.28,3.75,3.5,-3.01,4.76,-323.0,41.5,-416.88
130,2022-01-11 01:27:49.834138,25.5,60.4,997.0,114.0,1.72,0.28,3.74,3.22,-3.01,4.83,-329.0,41.0,-411.13
131,2022-01-11 01:27:49.881017,25.5,60.4,997.0,113.0,1.72,0.28,3.74,3.22,-3.01,4.83,-322.0,35.25,-413.5
132,2022-01-11 01:27:49.943521,25.5,60.4,997.0,113.0,1.72,0.28,3.74,3.29,-3.01,4.76,-322.5,40.75,-408.88
133,2022-01-11 01:27:50.006025,25.6,60.6,997.0,115.0,1.72,0.28,3.74,3.15,-2.87,4.9,-320.75,36.25,-416.38
134,2022-01-11 01:27:50.052891,25.6,60.6,997.0,114.0,1.72,0.28,3.75,3.29,-2.73,4.76,-327.0,38.75,-417.63
135,2022-01-11 01:27:50.131033,25.5,60.4,997.0,112.0,1.72,0.28,3.75,3.29,-2.73,4.76,-324.5,43.5,-405.0
136,2022-01-11 01:27:50.193537,25.5,60.4,997.0,111.0,1.72,0.28,3.74,2.94,-2.8,4.83,-317.0,37.0,-413.25
137,2022-01-11 01:27:50.224789,25.6,60.6,997.0,110.0,1.72,0.28,3.75,3.43,-2.87,4.97,-326.25,39.5,-396.13
138,2022-01-11 01:27:50.302918,25.6,60.6,997.0,111.0,1.72,0.28,3.74,3.29,-2.73,4.9,-320.75,41.5,-414.13
139,2022-01-11 01:27:50.349797,25.6,60.6,997.0,114.0,1.72,0.28,3.74,3.29,-2.73,4.9,-321.0,48.0,-407.0
140,2022-01-11 01:27:50.412301,25.5,60.3,997.0,113.0,1.72,0.28,3.75,3.92,-2.87,4.9,-326.5,40.0,-401.63
141,2022-01-11 01:27:50.459167,25.5,60.3,997.0,113.0,1.72,0.28,3.74,3.57,-2.87,4.97,-328.75,40.75,-409.25
142,2022-01-11 01:27:50.537310,25.5,60.3,997.0,110.0,1.72,0.28,3.75,3.57,-3.01,4.9,-319.5,37.5,-406.38
143,2022-01-11 01:27:50.600183,25.5,60.3,997.0,111.0,1.72,0.28,3.75,3.71,-3.01,4.9,-325.5,39.25,-403.5
144,2022-01-11 01:27:50.662707,25.7,60.3,997.0,113.0,1.72,0.28,3.74,3.71,-2.8,4.69,-324.0,40.0,-403.13
145,2022-01-11 01:27:50.693569,25.7,60.3,997.0,107.0,1.72,0.28,3.75,4.06,-2.94,4.83,-330.25,43.0,-405.63
146,2022-01-11 01:27:50.756079,25.7,60.3,997.0,112.0,1.72,0.28,3.75,4.06,-2.94,4.83,-326.25,44.5,-403.88
147,2022-01-11 01:27:50.818753,25.6,60.3,997.0,109.0,1.72,0.28,3.75,3.71,-3.29,4.76,-319.25,49.0,-413.5
148,2022-01-11 01:27:50.881086,25.6,60.3,997.0,116.0,1.72,0.28,3.75,3.71,-5.88,4.55,-319.75,37.5,-398.38
149,2022-01-11 01:27:50.943596,25.6,60.2,997.0,115.0,1.73,0.29,3.74,3.64,-10.36,3.22,-319.5,36.25,-423.63
150,2022-01-11 01:27:51.006094,25.6,60.2,997.0,113.0,1.73,0.29,3.74,3.64,-10.36,3.22,-325.25,39.75,-413.38
151,2022-01-11 01:27:51.068596,25.6,60.2,997.0,115.0,1.73,0.28,3.74,4.55,-5.6,4.9,-317.0,46.0,-420.25
152,2022-01-11 01:27:51.131101,25.5,60.1,997.0,110.0,1.73,0.28,3.75,4.62,-0.98,4.97,-323.5,35.75,-409.63
153,2022-01-11 01:27:51.177972,25.5,60.1,997.0,113.0,1.72,0.28,3.75,4.55,-1.61,4.83,-320.75,39.5,-407.5
154,2022-01-11 01:27:51.224850,25.6,60.3,997.0,113.0,1.72,0.28,3.75,4.55,-1.61,4.83,-317.5,37.25,-399.88
155,2022-01-11 01:27:51.287355,25.6,60.3,997.0,112.0,1.73,0.28,3.75,4.06,-2.45,4.76,-318.25,36.25,-410.63
156,2022-01-11 01:27:51.349858,25.6,60.1,997.0,111.0,1.72,0.28,3.75,3.99,-2.52,4.76,-320.5,33.0,-409.63
157,2022-01-11 01:27:51.412742,25.6,60.1,997.0,114.0,1.72,0.28,3.75,3.85,-2.52,4.76,-326.25,32.5,-405.63
158,2022-01-11 01:27:51.474866,25.6,60.1,997.0,112.0,1.72,0.28,3.75,3.85,-2.52,4.76,-323.0,38.5,-413.63
159,2022-01-11 01:27:51.537365,25.6,60.1,997.0,115.0,1.72,0.29,3.75,3.85,-2.94,4.69,-319.5,34.5,-402.0
160,2022-01-11 01:27:51.584248,25.6,60.1,997.0,111.0,1.72,0.28,3.75,3.29,-3.08,4.76,-316.5,37.75,-403.5
161,2022-01-11 01:27:51.631126,25.7,60.2,997.0,112.0,1.72,0.28,3.75,3.22,-2.94,4.9,-319.75,41.5,-403.88
162,2022-01-11 01:27:51.693619,25.7,60.2,997.0,116.0,1.72,0.28,3.75,3.22,-2.94,4.9,-315.25,37.25,-401.75
163,2022-01-11 01:27:51.756122,25.6,60.2,997.0,117.0,1.72,0.28,3.75,3.43,-2.31,5.04,-318.0,38.25,-406.88
164,2022-01-11 01:27:51.818638,25.6,60.4,997.0,112.0,1.72,0.28,3.75,3.5,-1.89,4.97,-313.75,40.5,-407.5
165,2022-01-11 01:27:51.881144,25.6,60.4,997.0,115.0,1.72,0.28,3.75,3.85,-2.45,4.9,-323.0,33.75,-398.13
166,2022-01-11 01:27:51.943646,25.6,60.0,997.0,113.0,1.72,0.28,3.75,3.85,-2.45,4.9,-318.5,38.75,-400.0
167,2022-01-11 01:27:52.006150,25.6,60.0,997.0,112.0,1.72,0.28,3.75,3.78,-3.08,4.69,-320.75,33.5,-409.75
168,2022-01-11 01:27:52.053028,25.6,60.3,997.0,113.0,1.72,0.28,3.75,3.92,-2.94,4.48,-319.5,35.5,-400.5
169,2022-01-11 01:27:52.115532,25.6,60.3,997.0,116.0,1.72,0.28,3.75,3.64,-3.15,4.55,-323.75,37.25,-413.63
170,2022-01-11 01:27:52.178042,25.6,60.3,997.0,115.0,1.72,0.28,3.75,3.64,-3.15,4.55,-322.0,39.0,-399.5
171,2022-01-11 01:27:52.240546,25.6,60.5,997.0,114.0,1.72,0.28,3.75,3.64,-3.36,4.48,-318.0,35.25,-412.25
172,2022-01-11 01:27:52.303033,25.6,60.5,997.0,114.0,1.72,0.28,3.75,3.5,-3.22,4.55,-326.25,41.0,-403.38
173,2022-01-11 01:27:52.350321,25.6,60.3,996.9,111.0,1.72,0.28,3.75,3.22,-2.66,4.9,-316.75,34.0,-409.5
174,2022-01-11 01:27:52.412430,25.6,60.3,997.0,113.0,1.72,0.28,3.75,3.22,-2.66,4.9,-321.75,37.75,-404.38
175,2022-01-11 01:27:52.474935,25.6,60.5,997.0,110.0,1.72,0.28,3.75,3.5,-2.8,4.76,-320.0,34.75,-408.5
176,2022-01-11 01:27:52.537466,25.6,60.5,997.0,116.0,1.72,0.28,3.75,3.92,-3.15,4.55,-317.0,41.75,-425.38
177,2022-01-11 01:27:52.584310,25.6,60.5,997.0,113.0,1.72,0.28,3.75,3.78,-2.87,4.69,-327.75,36.25,-398.38
178,2022-01-11 01:27:52.646813,25.7,60.4,997.0,115.0,1.72,0.28,3.75,3.78,-2.87,4.69,-321.5,35.75,-406.0
179,2022-01-11 01:27:52.709317,25.7,60.4,997.0,115.0,1.72,0.28,3.75,4.34,-3.5,4.76,-318.25,35.75,-396.75
180,2022-01-11 01:27:52.756196,25.6,60.2,997.0,115.0,1.72,0.28,3.75,4.48,-3.64,4.83,-316.0,33.75,-410.75
181,2022-01-11 01:27:52.834325,25.6,60.2,997.0,112.0,1.72,0.28,3.75,4.48,-3.64,4.83,-321.0,32.75,-403.25
182,2022-01-11 01:27:52.896829,25.7,60.2,997.0,111.0,1.72,0.28,3.75,3.78,-3.85,4.69,-317.5,41.5,-411.88
183,2022-01-11 01:27:52.928082,25.7,60.4,997.0,112.0,1.73,0.28,3.75,1.96,-3.22,4.69,-321.75,39.5,-406.88
184,2022-01-11 01:27:52.990591,25.7,60.4,997.0,112.0,1.72,0.28,3.75,0.42,-0.42,5.67,-320.0,38.5,-399.75
185,2022-01-11 01:27:53.053090,25.5,60.3,997.0,112.0,1.72,0.28,3.75,0.42,-0.42,5.67,-319.0,40.25,-414.25
186,2022-01-11 01:27:53.116017,25.5,60.3,997.0,111.0,1.71,0.27,3.75,-1.4,-1.4,6.09,-323.0,37.75,-411.13
187,2022-01-11 01:27:53.178098,25.7,60.4,997.0,110.0,1.72,0.28,3.75,2.8,-3.36,5.6,-321.25,38.25,-408.88
188,2022-01-11 01:27:53.240602,25.7,60.4,997.0,109.0,1.72,0.27,3.75,1.89,-4.13,4.76,-322.0,33.75,-398.38
189,2022-01-11 01:27:53.303093,25.7,60.4,997.0,109.0,1.72,0.27,3.75,1.89,-4.13,4.76,-321.75,35.0,-414.25
190,2022-01-11 01:27:53.365614,25.7,60.2,997.0,110.0,1.72,0.27,3.75,2.03,-2.87,5.18,-327.25,36.25,-409.13
191,2022-01-11 01:27:53.396862,25.7,60.2,997.0,106.0,1.72,0.28,3.75,2.03,-2.17,5.46,-313.5,42.0,-408.38
192,2022-01-11 01:27:53.459366,25.8,60.4,997.0,108.0,1.72,0.27,3.75,2.73,-3.43,4.97,-318.0,37.5,-414.75
193,2022-01-11 01:27:53.521867,25.8,60.4,997.0,107.0,1.72,0.27,3.75,2.73,-3.43,4.97,-320.25,32.5,-408.5
194,2022-01-11 01:27:53.584380,25.6,60.2,997.0,110.0,1.72,0.27,3.75,3.5,-3.01,4.83,-315.5,39.0,-402.25
195,2022-01-11 01:27:53.631256,25.6,60.2,997.0,108.0,1.72,0.27,3.74,3.22,-3.08,4.97,-323.25,31.5,-400.63
196,2022-01-11 01:27:53.709557,25.6,60.2,997.0,107.0,1.72,0.27,3.75,3.08,-3.22,4.83,-323.0,41.25,-415.75
197,2022-01-11 01:27:53.772067,25.7,60.0,997.0,107.0,1.72,0.27,3.75,3.08,-3.22,4.83,-325.75,32.0,-399.13
198,2022-01-11 01:27:53.834387,25.7,60.0,997.0,107.0,1.72,0.27,3.74,3.64,-2.87,4.9,-326.75,37.75,-412.5
199,2022-01-11 01:27:53.865646,25.6,60.3,997.0,104.0,1.72,0.27,3.74,3.5,-2.8,5.11,-328.25,41.75,-407.5
200,2022-01-11 01:27:53.928131,25.6,60.3,997.0,108.0,1.72,0.27,3.74,4.76,-2.24,5.53,-320.25,33.75,-408.13
201,2022-01-11 01:27:53.990648,25.6,60.3,997.0,106.0,1.72,0.27,3.74,4.76,-2.24,5.53,-327.5,41.5,-407.0
202,2022-01-11 01:27:54.053139,25.6,59.9,997.0,106.0,1.72,0.27,3.74,6.09,-2.45,5.11,-323.0,36.25,-414.63
203,2022-01-11 01:27:54.115649,25.6,59.9,997.0,105.0,1.72,0.28,3.75,5.67,-2.38,3.92,-318.5,37.0,-409.5
204,2022-01-11 01:27:54.178159,25.6,60.1,997.0,107.0,1.72,0.27,3.75,4.76,-2.59,4.2,-321.0,44.25,-398.88
205,2022-01-11 01:27:54.240663,25.6,60.1,997.0,105.0,1.72,0.27,3.75,4.76,-2.59,4.2,-317.25,43.75,-419.13
206,2022-01-11 01:27:54.287936,25.7,60.2,997.0,110.0,1.72,0.27,3.74,4.69,-2.87,4.55,-323.75,34.25,-405.13
207,2022-01-11 01:27:54.350051,25.7,60.2,997.0,111.0,1.72,0.27,3.75,5.04,-3.43,4.55,-323.5,36.0,-395.63
208,2022-01-11 01:27:54.412537,25.7,60.2,997.0,108.0,1.72,0.27,3.74,4.48,-2.94,4.62,-324.75,31.5,-388.63
209,2022-01-11 01:27:54.475053,25.7,60.4,997.0,109.0,1.72,0.27,3.74,4.48,-2.94,4.62,-323.5,35.75,-410.25
210,2022-01-11 01:27:54.537558,25.7,60.4,997.0,109.0,1.72,0.27,3.75,4.48,-3.36,4.48,-325.25,32.25,-400.75
211,2022-01-11 01:27:54.584435,25.6,59.9,997.0,108.0,1.72,0.28,3.75,4.27,-3.36,4.48,-330.75,38.5,-415.75
212,2022-01-11 01:27:54.646944,25.6,59.9,997.0,106.0,1.72,0.27,3.75,4.2,-3.36,4.69,-331.5,38.5,-399.5
213,2022-01-11 01:27:54.709443,25.7,60.2,997.0,109.0,1.72,0.27,3.75,4.2,-3.36,4.69,-323.75,38.25,-406.5
214,2022-01-11 01:27:54.756321,25.7,60.2,997.0,110.0,1.72,0.27,3.75,4.41,-3.57,4.62,-330.0,28.75,-415.25
215,2022-01-11 01:27:54.818825,25.7,60.2,997.0,106.0,1.72,0.28,3.75,4.62,-3.57,4.62,-315.25,36.5,-414.75
216,2022-01-11 01:27:54.881317,25.6,59.9,996.9,106.0,1.72,0.28,3.75,4.62,-3.57,4.62,-323.25,35.5,-415.5
217,2022-01-11 01:27:54.943838,25.6,59.9,996.9,109.0,1.72,0.28,3.75,4.69,-3.5,4.55,-320.5,33.5,-397.88
218,2022-01-11 01:27:55.006333,25.6,60.2,997.0,106.0,1.72,0.28,3.75,4.2,-3.29,4.41,-324.75,42.75,-399.75
219,2022-01-11 01:27:55.053222,25.6,60.2,997.0,107.0,1.72,0.28,3.75,3.92,-3.29,4.34,-320.75,37.25,-392.88
220,2022-01-11 01:27:55.115731,25.6,60.2,997.0,107.0,1.72,0.28,3.75,3.92,-3.29,4.34,-321.25,39.75,-410.88
221,2022-01-11 01:27:55.193838,25.6,59.7,997.0,107.0,1.72,0.28,3.75,3.71,-3.08,4.62,-327.25,34.5,-404.13
222,2022-01-11 01:27:55.240718,25.6,59.7,997.0,110.0,1.72,0.27,3.74,3.99,-3.71,4.55,-328.25,33.0,-414.13
223,2022-01-11 01:27:55.287594,25.7,60.1,997.0,109.0,1.72,0.28,3.75,4.9,-3.64,4.76,-331.25,33.75,-401.38
224,2022-01-11 01:27:55.350097,25.7,60.1,997.0,108.0,1.72,0.28,3.75,4.9,-3.64,4.76,-317.0,31.75,-402.63
225,2022-01-11 01:27:55.412612,25.6,60.2,997.0,107.0,1.72,0.28,3.74,4.41,-3.71,4.97,-324.75,37.25,-397.0
226,2022-01-11 01:27:55.475118,25.6,60.2,997.0,108.0,1.72,0.28,3.74,3.01,-3.5,4.97,-321.75,35.25,-403.13
227,2022-01-11 01:27:55.537608,25.6,60.2,997.0,109.0,1.72,0.28,3.75,1.89,-3.5,4.97,-322.25,42.0,-404.13
228,2022-01-11 01:27:55.600118,25.6,59.9,997.0,109.0,1.72,0.28,3.75,1.89,-3.5,4.97,-319.5,44.25,-400.0
229,2022-01-11 01:27:55.631382,25.6,59.9,997.0,111.0,1.72,0.27,3.75,1.26,-3.71,4.9,-311.5,40.25,-414.5
230,2022-01-11 01:27:55.710127,25.6,60.0,997.0,111.0,1.72,0.29,3.75,7.14,-0.21,4.62,-325.5,40.25,-398.5
231,2022-01-11 01:27:55.756387,25.6,60.0,997.0,110.0,1.72,0.27,3.74,4.76,-2.03,4.34,-320.5,35.5,-406.13
232,2022-01-11 01:27:55.818896,25.5,60.2,997.0,110.0,1.72,0.27,3.74,4.76,-2.03,4.34,-320.5,35.0,-401.88
233,2022-01-11 01:27:55.865772,25.5,60.2,997.0,109.0,1.72,0.28,3.75,5.25,-2.73,4.55,-318.75,41.0,-414.0
234,2022-01-11 01:27:55.943897,25.5,60.2,997.0,114.0,1.72,0.28,3.75,4.06,-2.94,4.9,-323.25,41.25,-401.5
235,2022-01-11 01:27:56.006724,25.6,59.8,997.0,112.0,1.72,0.28,3.74,3.5,-3.01,4.9,-318.25,44.75,-402.13
236,2022-01-11 01:27:56.068909,25.6,59.8,997.0,107.0,1.72,0.28,3.74,3.5,-3.01,4.9,-319.75,37.0,-404.63
237,2022-01-11 01:27:56.115786,25.6,60.1,997.0,109.0,1.72,0.28,3.75,3.71,-3.5,4.76,-324.0,38.5,-391.13
238,2022-01-11 01:27:56.162666,25.6,60.1,997.0,107.0,1.72,0.29,3.75,3.5,-3.15,4.76,-322.75,35.25,-419.88
239,2022-01-11 01:27:56.225169,25.6,60.1,997.0,107.0,1.72,0.26,3.75,0.56,-3.71,5.04,-323.0,31.5,-400.0
240,2022-01-11 01:27:56.287920,25.6,60.4,997.0,108.0,1.72,0.26,3.75,0.56,-3.71,5.04,-318.0,30.25,-411.75
241,2022-01-11 01:27:56.350365,25.6,60.4,997.0,111.0,1.72,0.29,3.75,7.35,-0.98,4.2,-328.0,37.0,-405.63
242,2022-01-11 01:27:56.412963,25.6,59.9,997.0,111.0,1.72,0.28,3.75,3.64,-2.94,4.62,-320.25,30.5,-418.75
243,2022-01-11 01:27:56.475188,25.6,59.9,997.0,110.0,1.72,0.28,3.75,3.78,-3.01,4.41,-324.5,34.25,-412.0
244,2022-01-11 01:27:56.537691,25.6,59.8,997.0,107.0,1.72,0.28,3.75,3.78,-3.01,4.41,-321.25,42.25,-404.38
245,2022-01-11 01:27:56.584547,25.6,59.8,997.0,110.0,1.72,0.28,3.75,4.06,-3.29,4.69,-323.75,43.25,-408.75
246,2022-01-11 01:27:56.631447,25.6,59.8,997.0,109.0,1.72,0.28,3.75,4.2,-3.57,4.62,-328.0,37.75,-414.88
247,2022-01-11 01:27:56.693948,25.7,59.9,997.0,112.0,1.72,0.28,3.75,4.13,-3.5,4.62,-322.75,35.5,-410.75
248,2022-01-11 01:27:56.756433,25.7,59.9,997.0,109.0,1.72,0.28,3.75,4.13,-3.5,4.62,-325.5,37.0,-411.5
249,2022-01-11 01:27:56.818954,25.6,59.9,997.0,110.0,1.72,0.28,3.75,5.11,-4.62,4.55,-322.0,39.25,-418.13
250,2022-01-11 01:27:56.881458,25.6,59.9,997.0,109.0,1.72,0.28,3.75,5.95,-3.92,4.41,-324.0,41.25,-404.5
251,2022-01-11 01:27:56.943951,25.6,59.9,997.0,106.0,1.72,0.28,3.75,5.95,-3.92,4.41,-321.0,45.75,-409.38
252,2022-01-11 01:27:56.990835,25.6,59.9,997.0,110.0,1.72,0.28,3.74,5.25,-2.59,4.27,-329.25,37.5,-397.25
253,2022-01-11 01:27:57.053339,25.6,59.9,997.0,107.0,1.72,0.29,3.75,6.23,-1.89,4.55,-319.0,37.0,-404.0
254,2022-01-11 01:27:57.115848,25.6,59.9,997.0,109.0,1.73,0.29,3.75,4.97,-0.98,5.53,-327.0,36.5,-397.75
255,2022-01-11 01:27:57.178341,25.6,59.9,997.0,110.0,1.73,0.29,3.75,4.97,-0.98,5.53,-321.0,36.5,-416.38
256,2022-01-11 01:27:57.240838,25.5,59.8,997.0,110.0,1.71,0.29,3.75,2.03,-0.49,5.95,-329.75,39.5,-402.38
257,2022-01-11 01:27:57.287735,25.5,59.8,997.0,108.0,1.71,0.28,3.74,0.42,-0.42,5.81,-318.25,40.25,-405.63
258,2022-01-11 01:27:57.350221,25.7,59.8,997.0,112.0,1.71,0.28,3.75,3.08,-1.96,4.83,-330.5,40.75,-401.5
259,2022-01-11 01:27:57.412726,25.7,59.7,997.0,112.0,1.71,0.28,3.75,3.08,-1.96,4.83,-329.0,44.0,-397.88
260,2022-01-11 01:27:57.459604,25.7,59.7,997.0,110.0,1.71,0.28,3.74,5.39,-5.74,3.64,-333.75,44.75,-399.0
261,2022-01-11 01:27:57.522108,25.6,59.8,997.0,112.0,1.73,0.28,3.76,7.77,-7.56,4.2,-330.25,40.5,-400.13
262,2022-01-11 01:27:57.584623,25.6,59.8,997.0,119.0,1.71,0.28,3.74,5.32,-0.21,5.18,-319.5,37.25,-413.25
263,2022-01-11 01:27:57.647122,25.6,59.9,997.0,120.0,1.71,0.28,3.74,5.32,-0.21,5.18,-332.25,40.5,-393.38
264,2022-01-11 01:27:57.694000,25.6,59.9,997.0,120.0,1.72,0.29,3.76,6.44,-1.33,5.39,-317.25,39.25,-410.75
265,2022-01-11 01:27:57.756515,25.6,59.9,997.0,120.0,1.71,0.29,3.74,4.83,-5.32,4.83,-332.25,39.25,-395.88
266,2022-01-11 01:27:57.834627,25.6,60.1,997.0,130.0,1.72,0.29,3.74,5.18,-5.25,4.48,-324.0,37.75,-403.13
267,2022-01-11 01:27:57.881524,25.6,60.1,997.0,130.0,1.72,0.29,3.74,5.18,-5.25,4.48,-328.25,42.25,-409.13
268,2022-01-11 01:27:57.944091,25.6,59.9,997.0,134.0,1.73,0.29,3.75,8.05,0.0,5.6,-313.75,46.25,-401.75
269,2022-01-11 01:27:57.990906,25.6,59.9,997.0,141.0,1.71,0.29,3.75,6.3,1.68,5.32,-319.25,42.75,-414.75
270,2022-01-11 01:27:58.053414,25.7,60.4,997.0,134.0,1.72,0.29,3.75,3.92,-4.62,4.13,-326.5,46.5,-393.38
271,2022-01-11 01:27:58.115898,25.7,60.4,997.0,130.0,1.72,0.29,3.75,3.92,-4.62,4.13,-314.0,36.75,-418.5
272,2022-01-11 01:27:58.178398,25.7,60.4,997.0,126.0,1.71,0.29,3.73,2.1,-7.35,5.74,-325.5,40.75,-401.88
273,2022-01-11 01:27:58.225276,25.8,60.1,997.0,121.0,1.72,0.29,3.75,4.55,-3.92,4.83,-316.25,39.75,-418.0
274,2022-01-11 01:27:58.287782,25.8,60.1,997.0,117.0,1.72,0.29,3.74,3.78,-5.53,4.83,-323.75,37.75,-403.13
275,2022-01-11 01:27:58.334660,25.7,60.1,997.0,122.0,1.72,0.29,3.74,3.78,-5.53,4.83,-313.0,39.0,-403.5
276,2022-01-11 01:27:58.397169,25.7,60.1,997.0,118.0,1.72,0.29,3.74,4.27,-3.57,4.62,-325.25,41.5,-400.75
277,2022-01-11 01:27:58.459674,25.7,60.1,997.0,126.0,1.72,0.29,3.74,4.27,0.49,5.04,-324.5,34.5,-390.5
278,2022-01-11 01:27:58.522171,25.7,61.1,997.0,124.0,1.72,0.3,3.75,6.37,2.66,4.48,-326.0,39.75,-416.25
279,2022-01-11 01:27:58.584682,25.7,61.1,997.0,126.0,1.72,0.3,3.75,6.37,2.66,4.48,-326.5,37.0,-409.25
280,2022-01-11 01:27:58.647179,25.7,60.4,997.0,125.0,1.71,0.29,3.76,4.62,-2.03,4.27,-316.0,40.75,-418.13
281,2022-01-11 01:27:58.709683,25.7,60.4,997.0,125.0,1.71,0.3,3.74,3.22,-6.3,5.04,-324.75,37.0,-405.25
282,2022-01-11 01:27:58.772199,25.7,60.2,997.0,123.0,1.72,0.3,3.75,3.22,-2.66,4.83,-313.0,35.0,-403.13
283,2022-01-11 01:27:58.819071,25.7,60.2,997.0,125.0,1.72,0.3,3.75,3.22,-2.66,4.83,-324.0,33.5,-402.38
284,2022-01-11 01:27:58.865950,25.7,60.2,997.0,116.0,1.71,0.29,3.74,2.73,-5.81,4.97,-316.5,44.75,-408.88
285,2022-01-11 01:27:58.928455,25.7,60.5,997.0,124.0,1.72,0.29,3.74,3.99,-1.47,4.48,-322.5,39.75,-410.88
286,2022-01-11 01:27:58.990969,25.7,60.5,997.0,123.0,1.72,0.29,3.74,3.99,-1.47,4.48,-316.5,40.5,-413.0
287,2022-01-11 01:27:59.053861,25.6,60.3,997.0,125.0,1.71,0.29,3.75,4.34,-0.7,4.48,-322.0,39.5,-392.63
288,2022-01-11 01:27:59.116480,25.6,60.3,997.0,124.0,1.72,0.29,3.74,3.5,-4.76,4.27,-328.75,36.75,-400.75
289,2022-01-11 01:27:59.178477,25.7,60.3,997.0,122.0,1.72,0.3,3.75,3.36,-2.8,4.34,-318.5,39.0,-406.0
290,2022-01-11 01:27:59.240983,25.7,60.3,997.0,123.0,1.72,0.3,3.75,3.36,-2.8,4.34,-323.5,37.75,-397.5
291,2022-01-11 01:27:59.287868,25.7,60.3,997.0,129.0,1.71,0.29,3.75,2.87,-4.2,5.11,-322.5,37.0,-419.25
292,2022-01-11 01:27:59.350365,25.7,60.1,997.0,131.0,1.72,0.3,3.74,3.29,-4.27,4.13,-321.25,42.0,-404.13
293,2022-01-11 01:27:59.412852,25.7,60.1,997.0,126.0,1.71,0.29,3.74,4.2,-0.98,5.11,-325.0,36.25,-407.5
294,2022-01-11 01:27:59.475363,25.8,60.4,997.0,119.0,1.71,0.29,3.74,4.2,-0.98,5.11,-329.25,34.0,-409.75
295,2022-01-11 01:27:59.522234,25.8,60.4,997.0,133.0,1.71,0.29,3.75,4.48,-1.26,4.69,-328.25,44.5,-411.0
296,2022-01-11 01:27:59.600362,25.7,60.4,997.0,127.0,1.72,0.29,3.75,4.06,-2.45,4.83,-327.5,43.25,-405.88
297,2022-01-11 01:27:59.662884,25.7,60.6,997.0,123.0,1.71,0.29,3.74,3.5,-4.55,4.62,-315.25,38.0,-407.38
298,2022-01-11 01:27:59.709757,25.7,60.6,997.0,123.0,1.71,0.29,3.74,3.5,-4.55,4.62,-315.0,39.5,-404.88
299,2022-01-11 01:27:59.756622,25.7,60.0,997.0,134.0,1.71,0.29,3.74,3.43,-3.15,4.69,-324.75,37.25,-396.75
300,2022-01-11 01:27:59.819139,25.7,60.0,997.0,123.0,1.71,0.29,3.74,3.71,-3.29,4.76,-326.5,39.25,-402.13
301,2022-01-11 01:27:59.881642,25.7,60.3,997.0,121.0,1.71,0.29,3.74,3.43,-2.87,4.69,-325.5,36.75,-401.25
302,2022-01-11 01:27:59.944147,25.7,60.3,997.0,128.0,1.71,0.29,3.74,3.43,-2.87,4.69,-318.75,37.5,-412.88
303,2022-01-11 01:27:59.991020,25.7,60.3,997.0,131.0,1.71,0.29,3.74,4.13,-2.24,4.76,-326.25,41.5,-403.13
304,2022-01-11 01:28:00.053523,25.7,60.4,997.0,127.0,1.71,0.29,3.75,5.6,0.84,4.69,-321.5,36.0,-402.13
305,2022-01-11 01:28:00.116021,25.7,60.4,997.0,132.0,1.71,0.29,3.75,4.76,-2.52,4.27,-328.0,40.5,-397.63
306,2022-01-11 01:28:00.162911,25.7,60.4,997.0,127.0,1.71,0.29,3.75,4.76,-2.52,4.27,-318.25,40.25,-396.88
307,2022-01-11 01:28:00.225415,25.7,60.4,997.0,131.0,1.71,0.29,3.74,3.29,-4.9,4.97,-329.0,36.0,-403.38
308,2022-01-11 01:28:00.287907,25.7,60.3,997.0,132.0,1.72,0.3,3.74,3.01,-5.88,4.06,-315.75,34.0,-404.0
309,2022-01-11 01:28:00.350423,25.7,60.3,997.0,131.0,1.71,0.29,3.74,3.15,-6.3,4.83,-318.75,41.5,-403.63
310,2022-01-11 01:28:00.412922,25.7,60.3,997.0,129.0,1.71,0.29,3.74,3.15,-6.3,4.83,-318.75,36.75,-396.25
311,2022-01-11 01:28:00.475431,25.6,60.5,997.0,124.0,1.72,0.29,3.74,3.78,-3.5,4.34,-320.5,38.75,-413.88
312,2022-01-11 01:28:00.537925,25.6,60.5,997.0,135.0,1.72,0.29,3.74,3.99,-2.8,4.55,-321.75,35.5,-403.88
313,2022-01-11 01:28:00.600445,25.6,60.4,997.0,134.0,1.72,0.29,3.75,4.48,-1.89,4.41,-318.0,40.0,-414.88
314,2022-01-11 01:28:00.647317,25.6,60.4,997.0,119.0,1.72,0.29,3.75,4.48,-1.89,4.41,-322.0,40.75,-401.75
315,2022-01-11 01:28:00.694201,25.8,60.4,997.0,126.0,1.72,0.29,3.74,4.27,-1.96,4.48,-318.75,31.25,-412.25
316,2022-01-11 01:28:00.756704,25.8,58.7,997.0,129.0,1.72,0.29,3.74,4.27,-3.78,4.2,-325.75,40.5,-398.13
317,2022-01-11 01:28:00.819209,25.8,58.7,997.0,124.0,1.71,0.29,3.74,3.78,-2.8,4.48,-323.75,51.25,-403.5
318,2022-01-11 01:28:00.881718,25.7,60.4,997.0,121.0,1.71,0.29,3.74,3.78,-2.8,4.48,-320.75,38.0,-402.75
319,2022-01-11 01:28:00.944205,25.7,60.4,997.0,125.0,1.72,0.29,3.75,4.13,-3.22,4.27,-317.75,43.75,-404.88
320,2022-01-11 01:28:01.006715,25.7,60.3,997.0,131.0,1.72,0.29,3.75,3.99,-3.01,4.34,-321.5,42.5,-421.38
321,2022-01-11 01:28:01.069218,25.7,60.3,997.0,118.0,1.72,0.29,3.75,3.99,-3.01,4.34,-323.75,37.5,-403.13
322,2022-01-11 01:28:01.100465,25.7,60.3,997.0,127.0,1.72,0.3,3.75,3.78,-3.29,4.41,-322.25,40.75,-415.13
323,2022-01-11 01:28:01.162963,25.7,60.6,997.0,121.0,1.72,0.29,3.75,3.43,-3.29,4.62,-322.0,43.0,-409.0
324,2022-01-11 01:28:01.225479,25.7,60.6,997.0,134.0,1.72,0.3,3.74,3.15,-3.57,4.55,-322.5,35.25,-410.13
325,2022-01-11 01:28:01.287982,25.7,60.3,997.0,135.0,1.72,0.3,3.74,3.15,-3.57,4.55,-325.25,41.0,-396.5
326,2022-01-11 01:28:01.350487,25.7,60.3,997.0,140.0,1.72,0.29,3.75,3.36,-2.94,4.76,-316.25,38.75,-403.75
327,2022-01-11 01:28:01.412991,25.8,60.5,997.0,138.0,1.72,0.29,3.75,3.92,-3.5,4.48,-323.5,39.25,-407.0
328,2022-01-11 01:28:01.475496,25.8,60.5,997.0,126.0,1.72,0.29,3.74,4.06,-3.92,4.48,-321.5,43.25,-413.75
329,2022-01-11 01:28:01.537987,25.8,60.5,997.0,128.0,1.72,0.29,3.74,4.06,-3.92,4.48,-321.25,39.75,-402.0
330,2022-01-11 01:28:01.569256,25.8,60.5,997.0,136.0,1.72,0.3,3.75,4.34,-3.78,4.34,-327.75,42.0,-404.75
331,2022-01-11 01:28:01.631759,25.8,60.5,997.0,133.0,1.72,0.29,3.74,3.85,-3.43,4.55,-323.75,37.75,-410.88
332,2022-01-11 01:28:01.709884,25.8,60.3,997.0,131.0,1.72,0.29,3.74,3.71,-2.52,4.62,-317.25,44.0,-400.75
333,2022-01-11 01:28:01.772714,25.8,60.3,997.0,137.0,1.72,0.29,3.74,3.71,-2.52,4.62,-319.5,37.25,-418.88
334,2022-01-11 01:28:01.819258,25.8,60.3,997.0,141.0,1.72,0.29,3.74,3.64,-2.66,4.48,-322.5,45.0,-409.5
335,2022-01-11 01:28:01.883349,25.7,59.5,997.0,142.0,1.72,0.29,3.74,3.64,-2.66,4.55,-322.0,35.5,-397.5
336,2022-01-11 01:28:01.946109,25.7,59.5,997.0,129.0,1.72,0.3,3.74,3.64,-2.17,4.48,-317.75,40.75,-405.13
337,2022-01-11 01:28:01.977111,25.7,60.5,997.0,153.0,1.72,0.3,3.74,3.64,-2.17,4.48,-314.5,47.5,-415.25
338,2022-01-11 01:28:02.039597,25.7,60.5,997.0,153.0,1.72,0.29,3.75,3.99,-2.94,4.76,-322.75,39.25,-410.5
339,2022-01-11 01:28:02.102121,25.7,60.6,997.0,137.0,1.72,0.29,3.74,3.99,-3.92,4.76,-315.75,34.0,-416.13
340,2022-01-11 01:28:02.180245,25.7,60.6,997.0,141.0,1.72,0.29,3.75,4.41,-4.69,4.62,-324.5,37.5,-393.75
341,2022-01-11 01:28:02.227127,25.7,60.6,997.0,140.0,1.72,0.29,3.75,4.41,-4.69,4.62,-322.5,40.0,-400.38
342,2022-01-11 01:28:02.289620,25.8,60.6,997.0,143.0,1.72,0.3,3.74,3.08,-2.8,4.41,-323.5,43.0,-410.63
343,2022-01-11 01:28:02.352129,25.8,60.6,997.0,139.0,1.72,0.29,3.74,2.87,-3.29,4.27,-324.5,38.75,-402.88
344,2022-01-11 01:28:02.414632,25.8,60.3,997.0,137.0,1.72,0.29,3.74,3.64,-3.71,4.55,-322.5,42.0,-421.13
345,2022-01-11 01:28:02.461514,25.8,60.3,997.0,115.0,1.72,0.29,3.74,3.64,-3.71,4.55,-327.75,33.25,-399.88
346,2022-01-11 01:28:02.524014,25.7,60.4,997.0,130.0,1.72,0.29,3.74,3.71,-3.64,4.97,-322.25,36.0,-413.25
347,2022-01-11 01:28:02.586513,25.7,60.4,997.0,136.0,1.72,0.29,3.73,3.29,-3.29,5.32,-325.5,32.75,-402.0
348,2022-01-11 01:28:02.649012,25.7,60.4,997.0,120.0,1.72,0.29,3.75,4.34,-0.49,5.18,-318.0,42.75,-414.63
349,2022-01-11 01:28:02.695901,25.7,60.4,997.0,139.0,1.72,0.29,3.75,4.34,-0.49,5.18,-326.25,39.75,-409.75
350,2022-01-11 01:28:02.758399,25.7,60.4,997.0,133.0,1.72,0.29,3.74,4.13,-3.57,4.76,-319.0,33.75,-405.5
351,2022-01-11 01:28:02.820909,25.7,60.8,997.0,132.0,1.72,0.3,3.74,4.76,-5.39,4.97,-321.5,39.0,-413.25
352,2022-01-11 01:28:02.883402,25.7,60.8,997.0,135.0,1.73,0.3,3.74,7.84,-13.09,4.41,-324.0,34.25,-401.38
353,2022-01-11 01:28:02.930291,25.7,60.8,997.0,127.0,1.73,0.3,3.74,7.84,-13.09,4.41,-320.5,38.25,-400.13
354,2022-01-11 01:28:02.992795,25.8,61.7,997.0,129.0,1.73,0.3,3.74,5.11,-5.6,5.11,-324.25,38.25,-393.5
355,2022-01-11 01:28:03.055298,25.8,61.7,997.0,127.0,1.73,0.29,3.74,3.29,-1.26,4.76,-315.25,42.0,-423.88
356,2022-01-11 01:28:03.117797,25.7,60.5,997.0,134.0,1.73,0.29,3.74,3.29,-1.26,4.76,-326.25,41.75,-384.13
357,2022-01-11 01:28:03.195921,25.7,60.5,997.0,128.0,1.72,0.3,3.74,6.37,3.92,6.86,-321.5,40.5,-414.75
358,2022-01-11 01:28:03.258431,25.7,60.2,997.0,131.0,1.72,0.3,3.75,14.0,5.95,7.35,-327.75,37.5,-400.38
359,2022-01-11 01:28:03.320935,25.7,60.2,997.0,136.0,1.71,0.31,3.75,13.51,1.89,7.14,-319.25,43.5,-402.63
360,2022-01-11 01:28:03.352449,25.7,60.2,997.0,123.0,1.71,0.31,3.75,13.51,1.89,7.14,-325.75,43.75,-407.38
361,2022-01-11 01:28:03.399074,25.8,60.6,997.0,129.0,1.71,0.31,3.75,8.61,0.49,5.81,-316.0,45.75,-401.13
362,2022-01-11 01:28:03.461570,25.8,60.6,997.0,129.0,1.71,0.31,3.75,3.85,0.28,4.62,-328.75,39.75,-405.5
363,2022-01-11 01:28:03.524083,25.8,60.4,997.0,139.0,1.7,0.31,3.75,1.61,0.07,4.06,-322.5,45.0,-408.5
364,2022-01-11 01:28:03.570957,25.8,60.4,997.0,118.0,1.7,0.31,3.75,1.61,0.07,4.06,-327.5,36.0,-412.5
365,2022-01-11 01:28:03.649081,25.8,60.6,997.0,130.0,1.71,0.3,3.74,-0.91,-6.93,3.57,-325.5,39.0,-393.75
366,2022-01-11 01:28:03.711597,25.8,60.6,997.0,126.0,1.71,0.31,3.74,4.34,-4.62,4.9,-314.25,40.25,-406.63
367,2022-01-11 01:28:03.774094,25.8,60.6,997.0,128.0,1.71,0.31,3.75,4.83,-4.2,4.97,-324.75,39.25,-412.63
368,2022-01-11 01:28:03.805335,25.7,60.4,997.0,124.0,1.71,0.31,3.75,4.83,-4.2,4.97,-315.0,36.25,-418.63
369,2022-01-11 01:28:03.867850,25.7,60.4,997.0,132.0,1.71,0.31,3.74,4.41,-4.9,4.48,-321.75,38.0,-400.0
370,2022-01-11 01:28:03.930348,25.8,60.5,997.0,122.0,1.71,0.31,3.75,5.32,-4.97,4.83,-321.75,42.25,-415.25
371,2022-01-11 01:28:03.992858,25.8,60.5,997.0,126.0,1.71,0.31,3.74,5.46,-5.46,4.9,-324.75,45.0,-397.25
372,2022-01-11 01:28:04.055362,25.8,60.5,997.0,129.0,1.71,0.31,3.74,5.46,-5.46,4.9,-319.75,41.5,-409.88
373,2022-01-11 01:28:04.118192,25.8,60.3,997.0,127.0,1.72,0.31,3.75,5.53,-5.95,4.69,-324.75,40.25,-418.88
374,2022-01-11 01:28:04.180357,25.8,60.3,997.0,129.0,1.72,0.31,3.74,4.2,-5.46,4.62,-318.5,37.0,-405.13
375,2022-01-11 01:28:04.211610,25.7,60.3,997.0,127.0,1.72,0.31,3.75,4.48,-4.76,4.69,-318.25,38.25,-413.0
376,2022-01-11 01:28:04.289752,25.7,60.3,997.0,132.0,1.72,0.31,3.75,4.48,-4.76,4.69,-329.25,44.5,-400.38
377,2022-01-11 01:28:04.336630,25.7,60.2,997.0,128.0,1.72,0.31,3.75,5.95,-4.83,4.97,-320.5,44.25,-413.63
378,2022-01-11 01:28:04.399134,25.7,60.2,997.0,123.0,1.72,0.31,3.74,5.81,-4.48,4.83,-328.75,39.25,-403.5
379,2022-01-11 01:28:04.446012,25.7,60.2,997.0,128.0,1.72,0.32,3.75,5.25,-3.57,4.9,-324.0,40.5,-415.88
380,2022-01-11 01:28:04.524131,25.8,60.4,997.0,125.0,1.72,0.32,3.75,5.25,-3.57,4.9,-323.25,44.25,-419.5
381,2022-01-11 01:28:04.586646,25.8,60.4,997.0,131.0,1.72,0.31,3.74,5.6,-3.5,5.11,-319.5,47.75,-416.25
382,2022-01-11 01:28:04.649150,25.8,60.4,997.0,133.0,1.72,0.32,3.75,5.81,-3.64,5.04,-326.0,40.5,-410.38
383,2022-01-11 01:28:04.696029,25.8,60.4,997.0,120.0,1.72,0.32,3.74,5.11,-3.71,4.83,-321.25,42.75,-401.75
384,2022-01-11 01:28:04.742913,25.8,60.5,997.0,129.0,1.72,0.32,3.74,5.11,-3.71,4.83,-323.75,43.0,-411.0
385,2022-01-11 01:28:04.805415,25.8,60.5,997.0,131.0,1.72,0.32,3.74,5.6,-3.92,4.9,-321.0,46.0,-412.5
386,2022-01-11 01:28:04.867927,25.8,60.5,997.0,132.0,1.72,0.32,3.74,6.51,-3.92,5.11,-320.0,40.25,-418.0
387,2022-01-11 01:28:04.930429,25.8,60.3,997.0,130.0,1.72,0.33,3.75,8.4,-6.3,5.04,-313.75,49.5,-418.88
388,2022-01-11 01:28:04.992926,25.8,60.3,997.0,138.0,1.72,0.33,3.75,8.4,-6.3,5.04,-313.25,41.75,-415.63
389,2022-01-11 01:28:05.055431,25.8,60.5,997.0,131.0,1.73,0.32,3.73,6.09,-11.48,4.76,-330.25,37.5,-399.25
390,2022-01-11 01:28:05.117924,25.8,60.5,997.0,141.0,1.73,0.33,3.74,4.97,-9.38,3.64,-313.75,37.25,-425.25
391,2022-01-11 01:28:05.164794,25.8,60.5,997.0,128.0,1.73,0.33,3.74,4.97,-9.38,3.64,-314.5,35.0,-410.0
392,2022-01-11 01:28:05.258563,25.8,58.9,997.0,130.0,1.74,0.33,3.73,4.27,-8.05,4.41,-306.5,35.75,-402.63
393,2022-01-11 01:28:05.305445,25.8,58.9,997.0,128.0,1.74,0.33,3.72,3.5,-5.39,4.55,-317.75,34.5,-406.75
394,2022-01-11 01:28:05.336693,25.8,60.5,997.0,126.0,1.74,0.32,3.74,2.52,-3.01,3.64,-314.0,37.25,-408.88
395,2022-01-11 01:28:05.399197,25.8,60.5,997.0,123.0,1.74,0.32,3.74,2.52,-3.01,3.64,-323.75,37.25,-409.0
396,2022-01-11 01:28:05.461706,25.8,60.6,997.0,125.0,1.74,0.33,3.73,3.36,-5.67,3.85,-319.5,37.75,-399.13
397,2022-01-11 01:28:05.524198,25.8,60.6,997.0,128.0,1.74,0.33,3.73,4.13,-2.17,5.25,-319.75,35.25,-409.88
398,2022-01-11 01:28:05.571083,25.8,60.6,997.0,133.0,1.74,0.33,3.73,3.5,-3.85,4.76,-318.25,37.25,-405.0
399,2022-01-11 01:28:05.633587,25.7,60.6,997.0,132.0,1.74,0.33,3.73,3.5,-3.85,4.76,-313.0,37.75,-407.75
400,2022-01-11 01:28:05.696082,25.7,60.6,997.0,128.0,1.74,0.32,3.74,3.57,-3.85,4.41,-315.0,37.5,-398.38
401,2022-01-11 01:28:05.758587,25.7,60.3,997.0,128.0,1.74,0.33,3.73,4.76,-3.15,4.9,-312.0,34.0,-415.13
402,2022-01-11 01:28:05.821087,25.7,60.3,997.0,130.0,1.74,0.33,3.73,5.11,-3.22,4.97,-314.5,42.75,-400.5
403,2022-01-11 01:28:05.867966,25.8,60.4,997.0,134.0,1.74,0.33,3.73,5.11,-3.22,4.97,-317.25,40.25,-416.88
404,2022-01-11 01:28:05.946107,25.8,60.4,997.0,130.0,1.74,0.33,3.73,4.41,-3.5,4.83,-313.0,37.75,-410.38
405,2022-01-11 01:28:05.992978,25.8,60.4,997.0,136.0,1.74,0.33,3.73,4.62,-3.64,4.97,-326.75,31.5,-414.75
406,2022-01-11 01:28:06.039857,25.8,60.6,997.0,135.0,1.74,0.33,3.73,4.13,-3.5,4.76,-318.0,42.5,-408.75
407,2022-01-11 01:28:06.102366,25.8,60.6,997.0,130.0,1.74,0.33,3.73,4.13,-3.5,4.76,-315.75,33.75,-414.63
408,2022-01-11 01:28:06.164876,25.8,60.5,997.0,137.0,1.74,0.33,3.74,4.55,-3.99,4.9,-322.0,37.0,-405.38
409,2022-01-11 01:28:06.227714,25.8,60.5,997.0,136.0,1.74,0.33,3.74,4.34,-3.64,4.83,-319.0,41.5,-404.75
410,2022-01-11 01:28:06.289873,25.8,60.5,997.0,137.0,1.74,0.33,3.73,4.41,-3.78,4.9,-316.0,35.5,-417.5
411,2022-01-11 01:28:06.352568,25.9,60.0,997.0,129.0,1.74,0.33,3.73,4.41,-3.78,4.9,-316.75,39.5,-390.0
412,2022-01-11 01:28:06.414876,25.9,60.0,997.0,125.0,1.74,0.33,3.74,3.78,-3.29,4.97,-320.0,35.0,-417.13
413,2022-01-11 01:28:06.477390,25.8,60.4,997.0,131.0,1.74,0.33,3.73,3.29,-3.71,4.62,-322.25,41.75,-413.13
414,2022-01-11 01:28:06.508649,25.8,60.4,997.0,133.0,1.74,0.33,3.74,5.18,-4.2,4.9,-313.0,37.0,-414.38
415,2022-01-11 01:28:06.571134,25.8,60.6,997.0,130.0,1.74,0.33,3.74,5.18,-4.2,4.9,-308.75,32.25,-408.25
416,2022-01-11 01:28:06.633638,25.8,60.6,997.0,134.0,1.75,0.33,3.73,5.88,-3.64,5.39,-311.75,36.75,-415.38
417,2022-01-11 01:28:06.680515,25.8,60.6,997.0,134.0,1.75,0.34,3.74,7.21,-3.64,5.53,-326.0,40.5,-407.25
418,2022-01-11 01:28:06.758658,25.8,60.6,997.0,123.0,1.74,0.33,3.74,5.11,-4.83,5.04,-314.0,34.0,-401.0
419,2022-01-11 01:28:06.821162,25.8,60.6,997.0,136.0,1.74,0.33,3.74,5.11,-4.83,5.04,-311.75,39.0,-408.25
420,2022-01-11 01:28:06.883655,25.8,60.7,997.0,134.0,1.75,0.34,3.74,5.04,-3.64,5.39,-321.5,38.0,-404.38
421,2022-01-11 01:28:06.914918,25.8,60.7,997.0,136.0,1.75,0.33,3.73,4.55,-3.5,5.18,-317.0,37.0,-424.25
422,2022-01-11 01:28:06.977422,25.8,60.4,997.0,138.0,1.75,0.33,3.74,4.55,-3.15,5.11,-316.25,33.5,-402.0
423,2022-01-11 01:28:07.039926,25.8,60.4,997.0,136.0,1.75,0.33,3.74,4.83,-3.15,5.11,-311.75,32.25,-407.0
424,2022-01-11 01:28:07.102418,25.8,60.4,997.0,131.0,1.74,0.34,3.73,4.41,-3.15,4.97,-314.0,37.75,-383.88
425,2022-01-11 01:28:07.164937,25.7,60.9,997.0,135.0,1.75,0.33,3.73,4.48,-3.22,4.69,-310.5,30.0,-415.38
426,2022-01-11 01:28:07.227442,25.7,60.9,997.0,127.0,1.75,0.33,3.73,4.48,-3.22,4.69,-317.75,34.75,-412.63
427,2022-01-11 01:28:07.289930,25.8,60.5,997.0,131.0,1.75,0.34,3.73,4.27,-3.22,4.83,-317.0,39.25,-403.0
428,2022-01-11 01:28:07.352446,25.8,60.5,997.0,134.0,1.75,0.34,3.73,4.27,-3.5,4.62,-318.25,29.75,-396.38
429,2022-01-11 01:28:07.399319,25.8,60.5,997.0,129.0,1.75,0.34,3.73,4.2,-3.57,4.55,-319.25,40.25,-397.5
430,2022-01-11 01:28:07.446202,25.8,60.2,997.0,126.0,1.75,0.34,3.73,4.2,-3.57,4.55,-317.75,44.25,-400.88
431,2022-01-11 01:28:07.508694,25.8,60.2,997.0,126.0,1.74,0.34,3.73,3.57,-3.57,4.41,-313.25,36.25,-394.88
432,2022-01-11 01:28:07.571216,25.8,60.6,997.0,130.0,1.75,0.34,3.73,2.45,-3.78,4.34,-313.25,37.25,-412.13
433,2022-01-11 01:28:07.633724,25.8,60.6,997.0,135.0,1.75,0.33,3.73,1.12,-3.15,3.99,-317.25,36.5,-404.63
434,2022-01-11 01:28:07.696225,25.8,60.4,997.0,131.0,1.75,0.33,3.73,1.12,-3.15,3.99,-310.75,42.75,-424.63
435,2022-01-11 01:28:07.758731,25.8,60.4,997.0,128.0,1.75,0.33,3.72,3.29,-3.15,4.48,-322.25,34.5,-391.75
436,2022-01-11 01:28:07.821228,25.8,60.4,997.0,133.0,1.75,0.33,3.73,4.69,-2.52,5.04,-312.25,31.5,-400.38
437,2022-01-11 01:28:07.868112,25.8,60.6,997.0,139.0,1.75,0.33,3.72,4.55,-2.59,4.76,-317.75,37.5,-399.88
438,2022-01-11 01:28:07.930611,25.8,60.6,997.0,136.0,1.75,0.33,3.72,4.55,-2.59,4.76,-318.5,32.75,-413.75
439,2022-01-11 01:28:07.993375,25.8,60.6,997.0,128.0,1.75,0.33,3.73,5.53,-3.22,5.04,-314.25,36.0,-406.88
440,2022-01-11 01:28:08.055601,25.8,60.6,997.0,130.0,1.74,0.34,3.73,6.58,-3.22,5.6,-312.25,37.75,-404.13
441,2022-01-11 01:28:08.102490,25.8,60.6,997.0,134.0,1.75,0.34,3.73,5.25,-4.13,3.85,-310.5,44.75,-408.0
442,2022-01-11 01:28:08.164983,25.8,60.6,997.0,132.0,1.75,0.34,3.73,5.25,-4.13,3.85,-316.0,38.0,-402.13
443,2022-01-11 01:28:08.227492,25.8,60.6,997.0,135.0,1.75,0.34,3.71,5.25,-5.53,5.81,-316.5,41.0,-411.13
444,2022-01-11 01:28:08.274364,25.8,60.6,997.0,131.0,1.75,0.34,3.73,6.16,0.14,4.55,-318.25,37.75,-402.25
445,2022-01-11 01:28:08.336875,25.8,60.6,997.0,134.0,1.74,0.35,3.73,8.47,0.63,6.02,-315.25,40.0,-415.88
446,2022-01-11 01:28:08.399378,25.8,60.5,997.0,136.0,1.74,0.35,3.73,8.47,0.63,6.02,-316.25,38.0,-392.25
447,2022-01-11 01:28:08.461889,25.8,60.5,997.0,128.0,1.74,0.34,3.73,6.72,-1.19,6.09,-305.75,44.25,-405.63
448,2022-01-11 01:28:08.524782,25.8,60.5,997.0,131.0,1.74,0.35,3.72,5.6,-0.7,5.25,-319.25,45.5,-399.38
449,2022-01-11 01:28:08.571266,25.8,60.4,997.0,132.0,1.74,0.34,3.72,3.92,-1.61,4.76,-317.0,34.25,-396.88
450,2022-01-11 01:28:08.649401,25.8,60.4,997.0,140.0,1.74,0.34,3.72,3.92,-1.61,4.76,-309.25,40.25,-404.5
451,2022-01-11 01:28:08.711905,25.8,60.6,997.0,131.0,1.74,0.35,3.72,3.99,-2.87,4.62,-318.0,38.25,-399.25
452,2022-01-11 01:28:08.758783,25.8,60.6,997.0,114.0,1.74,0.34,3.72,3.92,-3.01,4.83,-314.0,39.75,-403.25
453,2022-01-11 01:28:08.805661,25.8,60.5,997.0,126.0,1.74,0.35,3.72,3.43,-2.38,4.69,-309.5,38.25,-393.38
454,2022-01-11 01:28:08.868165,25.8,60.5,997.0,124.0,1.74,0.35,3.72,3.43,-2.38,4.69,-313.75,40.0,-408.5
455,2022-01-11 01:28:08.930663,25.8,60.5,997.0,136.0,1.74,0.34,3.73,3.57,-3.01,4.69,-318.75,35.75,-393.5
456,2022-01-11 01:28:08.977552,25.9,60.6,997.0,133.0,1.74,0.35,3.72,4.48,-2.59,4.83,-311.75,44.5,-405.25
457,2022-01-11 01:28:09.055666,25.9,60.6,997.0,132.0,1.74,0.34,3.73,4.48,-2.87,5.32,-314.0,39.25,-409.5
458,2022-01-11 01:28:09.118186,25.8,60.5,997.0,123.0,1.74,0.34,3.73,5.67,-2.87,5.32,-312.25,44.5,-395.25
459,2022-01-11 01:28:09.180695,25.8,60.5,997.0,125.0,1.74,0.35,3.73,6.65,-3.29,5.11,-313.75,36.25,-397.5
460,2022-01-11 01:28:09.211943,25.9,60.5,997.0,127.0,1.74,0.35,3.73,5.32,-3.15,5.46,-317.0,37.25,-398.25
461,2022-01-11 01:28:09.274445,25.9,60.4,997.0,131.0,1.74,0.35,3.73,5.32,-3.15,5.46,-313.75,43.75,-395.88
462,2022-01-11 01:28:09.336933,25.9,60.4,997.0,122.0,1.74,0.35,3.73,3.99,-2.59,4.97,-316.5,41.0,-407.75
463,2022-01-11 01:28:09.399454,25.8,60.8,997.0,135.0,1.74,0.35,3.73,3.64,-3.36,4.41,-313.5,39.75,-405.13
464,2022-01-11 01:28:09.461945,25.8,60.8,997.0,125.0,1.74,0.35,3.73,3.08,-3.15,4.62,-317.5,46.75,-402.0
465,2022-01-11 01:28:09.524455,25.9,60.5,997.0,131.0,1.74,0.35,3.73,3.08,-3.15,4.62,-313.75,40.75,-416.63
466,2022-01-11 01:28:09.586959,25.9,60.5,997.0,124.0,1.74,0.35,3.73,2.03,-2.94,4.27,-311.25,42.25,-394.25
467,2022-01-11 01:28:09.649457,25.9,60.5,997.0,124.0,1.74,0.35,3.73,0.98,-3.5,3.99,-312.0,37.75,-420.38
468,2022-01-11 01:28:09.680715,25.8,60.7,997.0,139.0,1.74,0.34,3.73,0.14,-2.94,4.06,-315.75,45.0,-411.88
469,2022-01-11 01:28:09.743213,25.8,60.7,997.0,124.0,1.74,0.34,3.73,0.14,-2.94,4.06,-312.75,43.0,-408.88
470,2022-01-11 01:28:09.805723,25.9,60.6,997.0,131.0,1.74,0.34,3.73,0.07,-3.5,3.92,-312.75,43.25,-408.5
471,2022-01-11 01:28:09.868233,25.9,60.6,997.0,133.0,1.74,0.34,3.73,2.59,-2.31,4.69,-313.25,43.0,-398.25
472,2022-01-11 01:28:09.931268,25.9,60.6,997.0,129.0,1.74,0.34,3.72,5.74,-2.59,5.32,-316.5,44.0,-401.75
473,2022-01-11 01:28:09.993235,25.9,60.6,997.0,131.0,1.74,0.34,3.72,5.74,-2.59,5.32,-315.0,44.75,-405.13
474,2022-01-11 01:28:10.056520,25.9,60.6,997.0,135.0,1.74,0.35,3.74,9.59,-3.15,6.16,-317.25,46.75,-412.13
475,2022-01-11 01:28:10.102623,25.8,60.7,997.0,123.0,1.74,0.35,3.73,5.04,-4.13,4.97,-316.25,38.75,-390.63
476,2022-01-11 01:28:10.165110,25.8,60.7,997.0,130.0,1.74,0.35,3.73,3.22,-4.55,4.83,-307.75,35.25,-409.75
477,2022-01-11 01:28:10.211999,25.9,60.7,997.0,132.0,1.74,0.35,3.73,3.22,-4.55,4.83,-314.75,45.5,-398.0
478,2022-01-11 01:28:10.274503,25.9,60.7,997.0,132.0,1.74,0.34,3.73,3.22,-3.64,4.69,-306.25,35.25,-402.5
479,2022-01-11 01:28:10.337012,25.9,60.7,997.0,138.0,1.74,0.34,3.73,3.57,-3.85,4.55,-317.25,44.5,-401.25
480,2022-01-11 01:28:10.399507,25.9,59.0,997.0,128.0,1.75,0.35,3.73,4.76,-3.99,4.76,-312.25,42.5,-396.0
481,2022-01-11 01:28:10.462022,25.9,59.0,997.0,127.0,1.75,0.35,3.73,4.76,-3.99,4.76,-315.5,45.0,-418.63
482,2022-01-11 01:28:10.524507,25.9,60.6,997.0,138.0,1.75,0.35,3.73,5.6,-4.13,4.83,-308.75,41.5,-408.13
483,2022-01-11 01:28:10.571391,25.9,60.6,997.0,134.0,1.74,0.35,3.73,5.53,-3.99,4.9,-322.5,45.0,-412.5
484,2022-01-11 01:28:10.633890,25.9,60.5,997.0,123.0,1.75,0.34,3.72,4.2,-4.34,4.55,-318.0,46.75,-393.5
485,2022-01-11 01:28:10.696411,25.9,60.5,997.0,128.0,1.75,0.34,3.72,4.2,-4.34,4.55,-307.0,42.25,-407.38
486,2022-01-11 01:28:10.758915,25.9,60.5,997.0,127.0,1.75,0.35,3.72,5.67,-4.06,4.9,-312.0,41.25,-391.13
487,2022-01-11 01:28:10.805773,26.0,60.6,997.0,134.0,1.75,0.35,3.71,9.38,-6.23,5.81,-313.0,39.25,-410.63
488,2022-01-11 01:28:10.868288,26.0,60.6,997.0,129.0,1.76,0.36,3.71,18.41,-9.73,7.91,-322.25,39.75,-395.25
489,2022-01-11 01:28:10.930798,25.9,60.8,997.0,125.0,1.76,0.36,3.71,18.41,-9.73,7.91,-307.75,42.0,-409.13
490,2022-01-11 01:28:10.977671,25.9,60.8,997.0,129.0,1.76,0.37,3.72,19.81,-11.06,8.75,-310.25,42.25,-405.0
491,2022-01-11 01:28:11.040169,25.9,60.7,997.0,127.0,1.76,0.38,3.72,14.56,-7.35,7.42,-304.25,46.5,-409.38
492,2022-01-11 01:28:11.102666,25.9,60.7,997.0,129.0,1.76,0.38,3.71,14.56,-7.35,7.42,-305.0,43.75,-401.75
493,2022-01-11 01:28:11.165183,25.9,60.7,997.0,128.0,1.76,0.38,3.71,9.87,-5.67,6.09,-306.25,55.0,-399.13
494,2022-01-11 01:28:11.212055,25.8,60.6,997.0,132.0,1.76,0.38,3.71,6.44,-4.34,5.18,-307.0,45.5,-407.5
495,2022-01-11 01:28:11.274569,25.8,60.6,997.0,131.0,1.77,0.38,3.71,6.09,-3.99,5.04,-310.5,42.0,-388.88
496,2022-01-11 01:28:11.352685,26.0,60.8,997.0,135.0,1.77,0.38,3.71,6.09,-3.99,5.04,-307.0,40.0,-410.5
497,2022-01-11 01:28:11.415186,26.0,60.8,997.0,128.0,1.77,0.38,3.71,9.94,-5.04,6.02,-314.75,42.75,-396.88
498,2022-01-11 01:28:11.446451,25.9,60.8,997.0,135.0,1.77,0.39,3.69,17.5,-9.87,8.47,-307.75,50.25,-408.0
499,2022-01-11 01:28:11.508955,25.9,61.3,997.0,138.0,1.81,0.37,3.61,30.24,-28.77,13.65,-317.75,46.5,-404.13
