,Timestamps,Temperature,Humidity,Pressure,Distance,Accx,Accy,Accz,Gyrox,Gyroy,Gyroz,Magnox,Magnoy,Magnoz
0,2022-01-11 01:26:14.949275,25.7,59.0,997.0,194.0,1.45,-0.82,3.79,4.06,-2.45,4.97,-218.75,-106.0,-427.25
1,2022-01-11 01:26:14.996147,25.8,60.4,997.0,151.0,1.45,-0.82,3.79,4.2,-2.8,4.97,-231.75,-110.5,-414.5
2,2022-01-11 01:26:15.058644,25.8,60.4,997.0,158.0,1.45,-0.82,3.79,4.2,-2.8,4.97,-226.5,-109.5,-421.63
3,2022-01-11 01:26:15.121148,25.9,58.9,997.0,159.0,1.45,-0.82,3.79,3.85,-2.31,4.83,-218.75,-107.5,-426.25
4,2022-01-11 01:26:15.183654,25.9,58.9,997.0,159.0,1.45,-0.83,3.77,6.16,-6.58,4.62,-218.75,-102.5,-417.5
5,2022-01-11 01:26:15.246163,25.9,59.1,997.0,159.0,1.48,-0.81,3.83,16.31,-20.09,5.46,-222.75,-107.25,-416.0
6,2022-01-11 01:26:15.293034,25.9,59.1,997.0,156.0,1.48,-0.81,3.83,16.31,-20.09,5.46,-213.75,-99.5,-408.75
7,2022-01-11 01:26:15.339914,25.9,59.1,997.0,155.0,1.46,-0.82,3.8,0.7,4.41,5.46,-222.5,-102.0,-423.38
8,2022-01-11 01:26:15.402417,25.7,59.0,997.0,156.0,1.47,-0.81,3.8,6.93,-7.28,4.83,-228.5,-108.5,-435.13
9,2022-01-11 01:26:15.464933,25.7,59.0,997.0,158.0,1.47,-0.81,3.81,6.72,-13.79,3.08,-220.25,-102.25,-424.5
10,2022-01-11 01:26:15.511799,25.8,58.9,997.0,156.0,1.47,-0.81,3.81,6.72,-13.79,3.08,-228.0,-101.25,-410.88
11,2022-01-11 01:26:15.589929,25.8,58.9,997.0,159.0,1.48,-0.82,3.8,3.85,-12.74,1.68,-227.0,-104.75,-415.75
12,2022-01-11 01:26:15.652433,25.8,58.9,997.0,161.0,1.49,-0.81,3.81,3.43,-1.82,4.48,-222.0,-107.25,-413.0
13,2022-01-11 01:26:15.714957,25.8,58.9,997.0,161.0,1.46,-0.82,3.78,-2.52,16.38,7.21,-219.25,-102.0,-413.38
14,2022-01-11 01:26:15.746208,25.8,58.9,997.0,165.0,1.46,-0.82,3.78,-2.52,16.38,7.21,-218.0,-107.25,-426.75
15,2022-01-11 01:26:15.808879,25.8,59.0,997.0,20.0,1.47,-0.82,3.8,3.15,-0.07,4.97,-225.25,-106.0,-406.5
16,2022-01-11 01:26:15.871214,25.8,59.0,997.0,165.0,1.46,-0.82,3.8,3.43,-2.31,4.62,-229.75,-107.5,-429.63
17,2022-01-11 01:26:15.933717,25.8,58.7,997.0,220.0,1.47,-0.82,3.8,3.36,-2.17,4.27,-225.5,-107.5,-418.88
18,2022-01-11 01:26:16.011848,25.8,58.7,997.0,255.0,1.47,-0.82,3.8,3.36,-2.17,4.27,-233.75,-97.75,-420.25
19,2022-01-11 01:26:16.058719,25.7,58.7,997.0,268.0,1.46,-0.82,3.8,3.15,-1.61,4.34,-228.0,-103.5,-402.88
20,2022-01-11 01:26:16.121209,25.7,58.5,997.0,225.0,1.46,-0.82,3.8,4.13,-1.75,4.69,-226.25,-102.5,-415.75
21,2022-01-11 01:26:16.168089,25.7,58.5,997.0,8190.0,1.46,-0.82,3.8,4.13,-1.75,4.69,-228.5,-104.5,-399.25
22,2022-01-11 01:26:16.214967,25.8,58.8,997.0,8190.0,1.46,-0.82,3.8,5.04,-2.31,5.04,-228.25,-103.25,-410.63
23,2022-01-11 01:26:16.277472,25.8,58.8,997.0,152.0,1.46,-0.82,3.8,5.39,-3.08,4.97,-224.0,-103.5,-416.38
24,2022-01-11 01:26:16.339986,25.8,58.9,997.0,8190.0,1.47,-0.81,3.8,4.27,-2.87,4.13,-219.25,-106.25,-408.25
25,2022-01-11 01:26:16.402478,25.8,58.9,997.0,20.0,1.47,-0.81,3.8,4.27,-2.87,4.13,-228.5,-105.75,-425.0
26,2022-01-11 01:26:16.464999,25.8,58.9,997.0,101.0,1.46,-0.82,3.8,4.55,-2.1,5.04,-220.5,-105.25,-402.13
27,2022-01-11 01:26:16.527503,25.9,58.8,997.0,146.0,1.46,-0.81,3.8,4.62,-2.45,5.18,-222.5,-97.25,-421.0
28,2022-01-11 01:26:16.590002,25.9,58.8,997.0,20.0,1.46,-0.82,3.8,3.78,-2.03,5.04,-222.75,-102.75,-402.13
29,2022-01-11 01:26:16.636885,25.8,59.0,997.0,139.0,1.46,-0.82,3.8,3.78,-2.03,5.04,-224.25,-103.5,-421.38
30,2022-01-11 01:26:16.699371,25.8,59.0,997.0,20.0,1.46,-0.82,3.8,3.15,-1.68,3.57,-225.0,-101.25,-410.0
31,2022-01-11 01:26:16.763371,25.8,58.9,997.0,139.0,1.46,-0.82,3.8,3.43,-0.35,3.15,-219.75,-104.5,-430.88
32,2022-01-11 01:26:16.825885,25.8,58.9,997.0,112.0,1.46,-0.82,3.81,4.62,-0.77,4.41,-220.5,-104.5,-423.88
33,2022-01-11 01:26:16.872768,25.8,58.9,997.0,20.0,1.46,-0.82,3.81,4.62,-0.77,4.41,-225.5,-101.5,-417.13
34,2022-01-11 01:26:16.935254,25.9,59.2,997.0,20.0,1.46,-0.82,3.8,3.78,-2.59,4.76,-224.75,-98.25,-405.25
35,2022-01-11 01:26:16.998330,25.9,59.2,997.0,147.0,1.46,-0.82,3.8,3.29,-3.57,5.6,-224.5,-100.5,-407.75
36,2022-01-11 01:26:17.044638,25.8,58.9,997.0,8190.0,1.46,-0.82,3.8,3.43,-2.59,4.76,-219.25,-100.0,-417.63
37,2022-01-11 01:26:17.107143,25.8,58.9,997.0,8190.0,1.46,-0.82,3.8,3.43,-2.59,4.76,-222.5,-100.25,-407.75
38,2022-01-11 01:26:17.169649,25.8,58.9,997.0,8190.0,1.46,-0.82,3.8,4.13,-2.38,4.83,-224.0,-104.5,-419.25
39,2022-01-11 01:26:17.247775,25.8,59.5,997.0,117.0,1.45,-0.82,3.8,3.5,-2.8,5.46,-229.0,-98.0,-414.38
40,2022-01-11 01:26:17.294655,25.8,59.5,997.0,141.0,1.46,-0.82,3.8,3.85,-2.52,4.83,-226.25,-105.75,-417.88
41,2022-01-11 01:26:17.341548,25.7,58.9,997.0,143.0,1.46,-0.82,3.8,3.85,-2.52,4.83,-225.0,-105.0,-415.0
42,2022-01-11 01:26:17.404262,25.7,58.9,997.0,20.0,1.45,-0.82,3.8,3.01,-2.17,4.76,-216.25,-102.0,-415.25
43,2022-01-11 01:26:17.466553,25.8,58.8,997.0,20.0,1.46,-0.82,3.8,3.71,-2.03,4.69,-224.75,-110.0,-411.25
44,2022-01-11 01:26:17.513643,25.8,58.8,997.0,129.0,1.45,-0.82,3.8,3.01,-2.24,4.76,-219.0,-106.25,-421.75
45,2022-01-11 01:26:17.575920,25.8,58.8,997.0,20.0,1.45,-0.82,3.8,3.01,-2.24,4.76,-226.25,-105.25,-423.0
46,2022-01-11 01:26:17.638425,25.8,58.7,997.0,123.0,1.46,-0.82,3.8,3.29,-1.47,5.39,-230.75,-105.25,-415.5
47,2022-01-11 01:26:17.700931,25.8,58.7,997.0,20.0,1.45,-0.83,3.79,0.63,-0.35,3.99,-224.0,-106.0,-421.63
48,2022-01-11 01:26:17.763432,25.8,58.8,997.0,20.0,1.45,-0.83,3.8,1.68,-0.28,5.39,-225.5,-106.0,-408.88
49,2022-01-11 01:26:17.825953,25.8,58.8,997.0,124.0,1.45,-0.83,3.8,1.68,-0.28,5.39,-223.25,-104.25,-413.38
50,2022-01-11 01:26:17.888440,25.9,58.8,997.0,20.0,1.45,-0.83,3.8,1.96,-0.7,6.23,-227.0,-109.5,-407.25
51,2022-01-11 01:26:17.950944,25.9,58.8,997.0,20.0,1.45,-0.83,3.8,-0.42,-0.14,6.09,-221.75,-108.5,-422.75
52,2022-01-11 01:26:17.982196,25.9,58.8,997.0,97.0,1.44,-0.84,3.79,-0.91,-0.7,7.91,-220.5,-100.0,-403.0
53,2022-01-11 01:26:18.044700,25.9,58.9,997.0,8190.0,1.44,-0.84,3.79,-0.91,-0.7,7.91,-220.25,-103.75,-423.38
54,2022-01-11 01:26:18.107204,25.9,58.9,997.0,8190.0,1.44,-0.84,3.8,0.7,-1.33,8.4,-226.25,-98.0,-420.63
55,2022-01-11 01:26:18.169710,25.8,58.8,997.0,20.0,1.44,-0.84,3.79,1.96,-2.1,6.72,-227.0,-105.25,-430.88
56,2022-01-11 01:26:18.216603,25.8,58.8,997.0,20.0,1.44,-0.84,3.79,1.96,-2.1,6.72,-225.25,-112.0,-422.0
57,2022-01-11 01:26:18.294716,25.9,58.8,997.0,126.0,1.44,-0.84,3.8,2.94,-1.82,6.51,-220.25,-105.0,-403.75
58,2022-01-11 01:26:18.357221,25.9,59.2,997.0,20.0,1.44,-0.84,3.8,3.22,-1.68,5.95,-228.75,-103.25,-423.88
59,2022-01-11 01:26:18.419742,25.9,59.2,997.0,20.0,1.44,-0.84,3.8,4.13,-2.17,5.32,-223.25,-102.0,-405.63
60,2022-01-11 01:26:18.451343,25.8,59.1,997.0,174.0,1.44,-0.84,3.8,4.13,-2.17,5.32,-225.25,-98.25,-424.5
61,2022-01-11 01:26:18.513481,25.8,59.1,997.0,139.0,1.44,-0.84,3.8,4.27,-2.38,5.04,-225.25,-102.0,-409.38
62,2022-01-11 01:26:18.576518,25.8,58.7,997.0,163.0,1.44,-0.84,3.8,4.69,-2.8,4.76,-221.0,-107.25,-425.13
63,2022-01-11 01:26:18.638676,25.8,58.7,997.0,20.0,1.45,-0.84,3.8,5.67,-3.64,4.9,-221.5,-103.25,-404.13
64,2022-01-11 01:26:18.701009,25.8,58.7,997.0,133.0,1.45,-0.84,3.8,5.67,-3.64,4.9,-220.25,-101.25,-408.5
65,2022-01-11 01:26:18.763536,25.9,58.8,997.0,20.0,1.44,-0.84,3.8,4.2,-3.5,4.48,-223.25,-105.0,-410.13
66,2022-01-11 01:26:18.826016,25.9,58.8,997.0,167.0,1.44,-0.84,3.8,4.97,-3.5,5.04,-219.0,-106.25,-421.75
67,2022-01-11 01:26:18.872895,25.8,58.6,997.0,137.0,1.44,-0.83,3.8,4.9,-3.71,3.92,-227.75,-104.5,-417.63
68,2022-01-11 01:26:18.919770,25.8,58.6,997.0,20.0,1.44,-0.83,3.8,4.9,-3.71,3.92,-225.25,-103.25,-409.75
69,2022-01-11 01:26:18.982269,25.8,58.9,997.0,20.0,1.44,-0.84,3.8,5.67,-1.26,3.85,-224.0,-110.75,-401.75
70,2022-01-11 01:26:19.044767,25.8,58.9,997.0,20.0,1.45,-0.84,3.8,4.97,-1.82,3.43,-224.0,-107.25,-404.0
71,2022-01-11 01:26:19.107264,25.8,58.9,997.0,8190.0,1.44,-0.83,3.79,4.34,-2.66,4.69,-219.25,-104.25,-420.25
72,2022-01-11 01:26:19.169769,25.9,58.8,997.0,8190.0,1.44,-0.83,3.79,4.34,-2.66,4.69,-228.75,-105.75,-399.75
73,2022-01-11 01:26:19.232291,25.9,58.8,997.0,20.0,1.44,-0.84,3.8,5.88,-1.4,2.45,-222.25,-104.25,-422.5
74,2022-01-11 01:26:19.294783,25.8,58.7,997.0,156.0,1.44,-0.83,3.8,7.56,-2.66,3.78,-225.5,-99.25,-412.75
75,2022-01-11 01:26:19.341672,25.8,58.7,997.0,20.0,1.44,-0.83,3.8,7.56,-3.92,3.78,-224.25,-104.25,-413.13
76,2022-01-11 01:26:19.404171,25.8,58.7,997.0,20.0,1.44,-0.83,3.8,7.56,-3.92,3.78,-229.75,-105.5,-413.38
77,2022-01-11 01:26:19.451049,25.8,58.6,997.0,107.0,1.45,-0.83,3.81,7.7,-1.33,3.01,-221.25,-105.75,-415.25
78,2022-01-11 01:26:19.513553,25.8,58.6,997.0,20.0,1.44,-0.82,3.8,5.18,-2.52,3.85,-223.5,-103.5,-430.5
79,2022-01-11 01:26:19.576057,25.8,58.7,997.0,20.0,1.44,-0.83,3.81,4.9,-2.73,4.55,-219.25,-103.5,-409.63
80,2022-01-11 01:26:19.638566,25.8,58.7,997.0,144.0,1.44,-0.83,3.81,4.9,-2.73,4.55,-226.75,-96.0,-421.25
81,2022-01-11 01:26:19.701066,25.8,58.9,997.0,20.0,1.44,-0.83,3.79,3.22,-3.71,4.2,-227.25,-97.75,-410.5
82,2022-01-11 01:26:19.763574,25.8,58.9,997.1,20.0,1.44,-0.82,3.8,4.27,-3.08,4.97,-221.25,-104.0,-409.5
83,2022-01-11 01:26:19.810441,25.8,58.9,997.1,125.0,1.44,-0.82,3.8,3.78,-2.73,4.41,-234.25,-104.25,-397.38
84,2022-01-11 01:26:19.872939,25.9,58.7,997.0,145.0,1.44,-0.82,3.8,3.78,-2.73,4.41,-228.25,-107.75,-411.25
85,2022-01-11 01:26:19.935446,25.9,58.7,997.0,8190.0,1.45,-0.83,3.8,3.64,-2.38,4.55,-228.25,-105.25,-400.25
86,2022-01-11 01:26:19.997949,25.8,58.7,997.0,110.0,1.44,-0.82,3.79,2.45,-2.59,4.34,-222.75,-108.5,-415.13
87,2022-01-11 01:26:20.044847,25.8,58.7,997.0,8190.0,1.44,-0.83,3.8,2.73,-2.52,4.69,-222.5,-104.5,-410.75
88,2022-01-11 01:26:20.107347,25.8,58.7,997.0,20.0,1.44,-0.83,3.8,2.73,-2.52,4.69,-231.25,-99.75,-406.75
89,2022-01-11 01:26:20.170070,25.8,58.7,997.0,20.0,1.44,-0.83,3.8,3.57,-2.66,5.11,-223.75,-107.25,-409.25
90,2022-01-11 01:26:20.217003,25.8,58.7,997.0,20.0,1.44,-0.83,3.8,3.43,-3.15,4.48,-219.5,-103.5,-405.0
91,2022-01-11 01:26:20.279213,25.8,58.9,997.0,8190.0,1.44,-0.83,3.8,3.43,-3.15,4.48,-219.25,-111.0,-418.38
92,2022-01-11 01:26:20.341717,25.8,58.9,997.0,120.0,1.44,-0.83,3.79,3.78,-2.94,4.83,-217.0,-100.25,-409.75
93,2022-01-11 01:26:20.404220,25.9,58.5,997.0,8190.0,1.44,-0.83,3.79,3.78,-3.01,4.83,-229.25,-109.5,-428.13
94,2022-01-11 01:26:20.451098,25.9,58.5,997.0,20.0,1.44,-0.83,3.79,4.06,-2.94,4.83,-224.75,-101.5,-409.88
95,2022-01-11 01:26:20.513601,25.9,58.5,997.0,20.0,1.44,-0.83,3.79,4.06,-2.94,4.83,-221.5,-108.75,-425.63
96,2022-01-11 01:26:20.591731,25.8,58.5,997.0,20.0,1.44,-0.83,3.8,3.92,-3.01,4.76,-219.0,-102.5,-409.38
97,2022-01-11 01:26:20.654237,25.8,58.5,997.0,129.0,1.44,-0.83,3.79,3.64,-2.66,4.69,-220.25,-106.25,-411.0
98,2022-01-11 01:26:20.685490,25.8,58.8,997.0,20.0,1.44,-0.83,3.8,4.06,-2.87,4.69,-221.0,-106.75,-408.88
99,2022-01-11 01:26:20.748004,25.8,58.8,997.0,108.0,1.44,-0.83,3.8,4.06,-2.87,4.69,-223.5,-104.0,-401.0
100,2022-01-11 01:26:20.810788,25.8,58.4,997.0,8190.0,1.44,-0.83,3.79,4.41,-2.45,5.04,-230.0,-109.0,-411.75
101,2022-01-11 01:26:20.873615,25.8,58.4,997.0,20.0,1.44,-0.83,3.79,3.71,-3.22,4.62,-224.5,-101.75,-414.75
102,2022-01-11 01:26:20.919878,25.8,58.4,997.0,8190.0,1.44,-0.83,3.79,3.57,-3.36,4.69,-220.25,-105.75,-426.0
103,2022-01-11 01:26:20.998010,25.8,58.8,997.0,20.0,1.44,-0.83,3.79,3.57,-3.36,4.69,-219.5,-104.75,-403.75
104,2022-01-11 01:26:21.060512,25.8,58.8,997.0,20.0,1.44,-0.83,3.8,4.06,-2.8,4.62,-217.0,-105.5,-405.63
105,2022-01-11 01:26:21.123016,25.9,58.8,997.0,134.0,1.44,-0.83,3.79,4.27,-3.01,4.83,-220.75,-102.25,-407.63
106,2022-01-11 01:26:21.201146,25.9,58.8,997.0,20.0,1.44,-0.83,3.79,3.99,-2.8,4.55,-222.25,-107.75,-416.5
107,2022-01-11 01:26:21.216773,25.8,58.8,997.0,148.0,1.44,-0.83,3.79,3.99,-2.8,4.55,-226.25,-111.5,-414.63
108,2022-01-11 01:26:21.279289,25.8,58.8,997.0,149.0,1.44,-0.83,3.8,4.34,-2.73,5.04,-219.0,-103.75,-415.75
109,2022-01-11 01:26:21.342001,25.8,58.8,997.0,20.0,1.44,-0.83,3.8,4.2,-2.87,4.83,-224.75,-109.75,-419.25
110,2022-01-11 01:26:21.404300,25.8,58.6,997.0,20.0,1.44,-0.83,3.8,3.99,-2.87,4.97,-220.5,-105.5,-417.25
111,2022-01-11 01:26:21.466806,25.8,58.6,997.0,145.0,1.44,-0.83,3.8,3.99,-2.87,4.97,-223.25,-108.0,-424.63
112,2022-01-11 01:26:21.529292,25.8,58.6,997.0,8190.0,1.44,-0.83,3.8,4.27,-2.87,4.83,-223.75,-103.0,-406.25
113,2022-01-11 01:26:21.576176,25.8,58.6,997.0,115.0,1.44,-0.83,3.8,3.99,-2.73,4.76,-221.0,-103.0,-422.38
114,2022-01-11 01:26:21.640286,25.8,58.6,997.0,142.0,1.44,-0.83,3.8,4.27,-2.87,4.83,-227.5,-105.75,-409.25
115,2022-01-11 01:26:21.687185,25.9,59.8,997.0,131.0,1.44,-0.83,3.8,4.27,-2.87,4.83,-222.5,-104.25,-418.75
116,2022-01-11 01:26:21.750081,25.9,59.8,997.0,150.0,1.44,-0.83,3.8,4.13,-2.87,4.83,-222.0,-111.5,-404.38
117,2022-01-11 01:26:21.812169,25.9,58.6,997.0,20.0,1.44,-0.83,3.8,4.2,-2.52,4.34,-222.75,-102.75,-417.75
118,2022-01-11 01:26:21.874906,25.9,58.6,997.0,8190.0,1.44,-0.83,3.8,4.55,-2.73,5.04,-227.75,-106.25,-407.0
119,2022-01-11 01:26:21.937189,25.9,58.7,997.0,171.0,1.44,-0.83,3.8,4.55,-2.73,5.04,-221.25,-103.75,-407.88
120,2022-01-11 01:26:21.999966,25.9,58.7,997.0,20.0,1.44,-0.83,3.8,4.2,-2.87,4.55,-224.5,-108.0,-417.88
121,2022-01-11 01:26:22.046815,25.9,58.7,997.0,127.0,1.44,-0.83,3.79,4.27,-2.66,4.97,-225.25,-110.5,-407.25
122,2022-01-11 01:26:22.093444,25.9,58.5,997.0,8190.0,1.44,-0.83,3.8,4.27,-2.73,4.69,-223.75,-109.25,-408.88
123,2022-01-11 01:26:22.155953,25.9,58.5,997.0,20.0,1.44,-0.83,3.8,4.06,-2.73,4.69,-220.75,-110.25,-421.63
124,2022-01-11 01:26:22.218463,25.9,58.9,997.0,140.0,1.44,-0.83,3.79,3.92,-2.45,4.76,-222.0,-107.25,-413.63
125,2022-01-11 01:26:22.280967,25.9,58.9,997.0,8190.0,1.44,-0.83,3.8,4.2,-2.73,4.76,-220.0,-106.5,-405.0
126,2022-01-11 01:26:22.343471,26.0,58.6,997.0,20.0,1.44,-0.83,3.8,4.2,-2.73,4.76,-219.75,-114.25,-414.63
127,2022-01-11 01:26:22.405957,26.0,58.6,997.0,96.0,1.44,-0.83,3.79,4.27,-2.17,4.27,-227.0,-107.0,-406.38
128,2022-01-11 01:26:22.468473,26.0,58.6,997.0,8190.0,1.44,-0.83,3.8,4.83,-1.61,4.13,-221.25,-108.0,-414.0
129,2022-01-11 01:26:22.515346,25.9,58.8,997.0,138.0,1.44,-0.83,3.8,4.13,-2.52,4.48,-227.75,-100.25,-412.38
130,2022-01-11 01:26:22.577850,25.9,58.8,997.0,150.0,1.44,-0.83,3.8,4.13,-2.52,4.48,-215.25,-106.5,-416.88
131,2022-01-11 01:26:22.640365,25.9,58.6,997.0,20.0,1.44,-0.83,3.8,4.2,-2.8,4.76,-228.75,-111.5,-425.38
132,2022-01-11 01:26:22.687238,25.9,58.6,997.0,135.0,1.44,-0.83,3.8,3.92,-3.01,4.9,-223.0,-104.0,-404.5
133,2022-01-11 01:26:22.749994,25.9,58.6,997.0,138.0,1.44,-0.83,3.8,3.92,-3.15,5.04,-219.75,-113.0,-418.75
134,2022-01-11 01:26:22.812251,25.9,57.3,997.0,112.0,1.44,-0.83,3.8,3.92,-3.15,5.04,-229.5,-101.25,-409.88
135,2022-01-11 01:26:22.874756,25.9,57.3,997.0,168.0,1.44,-0.83,3.8,4.2,-2.87,4.69,-224.0,-113.5,-419.38
136,2022-01-11 01:26:22.937247,26.0,58.6,997.0,138.0,1.44,-0.83,3.8,3.92,-3.22,4.69,-221.0,-106.0,-407.88
137,2022-01-11 01:26:22.984136,26.0,58.6,997.0,147.0,1.44,-0.83,3.8,4.2,-2.73,4.76,-223.25,-104.0,-422.25
138,2022-01-11 01:26:23.046628,25.9,58.8,997.0,170.0,1.44,-0.83,3.8,4.2,-2.73,4.76,-224.0,-104.0,-400.0
139,2022-01-11 01:26:23.109141,25.9,58.8,997.0,142.0,1.44,-0.83,3.8,3.92,-2.8,4.69,-223.5,-105.0,-421.63
140,2022-01-11 01:26:23.171629,25.9,58.8,997.0,147.0,1.44,-0.83,3.8,4.13,-2.66,4.69,-229.25,-107.5,-414.5
141,2022-01-11 01:26:23.218519,25.9,58.4,997.0,119.0,1.44,-0.83,3.8,4.06,-2.8,4.48,-222.75,-107.5,-408.38
142,2022-01-11 01:26:23.281023,25.9,58.4,997.0,146.0,1.44,-0.83,3.8,4.06,-2.8,4.48,-229.75,-105.0,-430.38
143,2022-01-11 01:26:23.359140,25.9,58.4,997.0,168.0,1.44,-0.83,3.8,4.27,-2.94,4.55,-224.0,-105.75,-419.88
144,2022-01-11 01:26:23.406031,25.9,58.4,997.0,137.0,1.44,-0.83,3.8,3.99,-2.94,4.69,-222.25,-112.5,-421.0
145,2022-01-11 01:26:23.452909,26.0,58.7,997.0,8190.0,1.44,-0.83,3.8,3.99,-3.01,4.69,-227.75,-101.75,-416.0
146,2022-01-11 01:26:23.515413,26.0,58.7,997.0,120.0,1.44,-0.83,3.8,3.99,-3.01,4.69,-225.0,-109.0,-420.88
147,2022-01-11 01:26:23.577906,26.0,58.7,997.0,140.0,1.44,-0.83,3.8,4.06,-3.08,4.69,-224.0,-106.25,-412.25
148,2022-01-11 01:26:23.640411,25.9,58.6,997.0,141.0,1.44,-0.83,3.8,4.06,-2.8,4.69,-223.0,-105.25,-417.38
149,2022-01-11 01:26:23.702930,25.9,58.6,997.0,20.0,1.44,-0.83,3.8,3.99,-2.94,4.69,-222.5,-109.0,-426.38
150,2022-01-11 01:26:23.765429,25.9,58.6,997.0,8190.0,1.44,-0.83,3.8,3.99,-2.94,4.69,-218.25,-107.75,-415.13
151,2022-01-11 01:26:23.827928,25.9,58.6,997.0,98.0,1.44,-0.83,3.8,3.78,-2.87,4.76,-223.25,-106.75,-419.63
152,2022-01-11 01:26:23.859431,25.9,58.6,997.0,175.0,1.44,-0.83,3.81,4.06,-2.87,4.76,-222.25,-104.5,-410.0
153,2022-01-11 01:26:23.921695,26.0,58.5,997.0,8190.0,1.44,-0.83,3.8,3.64,-2.73,4.69,-223.0,-114.0,-414.75
154,2022-01-11 01:26:23.984193,26.0,58.5,997.0,20.0,1.44,-0.83,3.8,3.64,-2.73,4.69,-221.25,-105.5,-410.0
155,2022-01-11 01:26:24.046697,25.9,58.5,997.0,20.0,1.44,-0.83,3.8,4.34,-2.94,4.83,-225.25,-109.0,-416.13
156,2022-01-11 01:26:24.093569,25.9,58.5,997.0,136.0,1.44,-0.83,3.8,3.85,-2.73,4.62,-224.0,-109.75,-401.75
157,2022-01-11 01:26:24.171711,25.8,58.4,997.0,8190.0,1.44,-0.83,3.8,3.85,-2.73,4.62,-226.75,-113.0,-415.75
158,2022-01-11 01:26:24.234214,25.8,58.4,997.0,20.0,1.44,-0.83,3.8,3.92,-2.87,4.69,-228.25,-114.0,-416.0
159,2022-01-11 01:26:24.265467,25.8,58.4,997.0,20.0,1.44,-0.83,3.8,3.85,-2.73,4.62,-216.75,-106.25,-410.0
160,2022-01-11 01:26:24.327970,25.9,58.8,997.0,132.0,1.44,-0.83,3.8,3.99,-2.73,4.76,-223.75,-111.0,-417.25
161,2022-01-11 01:26:24.390475,25.9,58.8,997.0,20.0,1.44,-0.83,3.8,3.99,-2.73,4.76,-218.5,-107.0,-413.75
162,2022-01-11 01:26:24.452977,26.0,58.6,997.0,8190.0,1.44,-0.83,3.8,4.13,-2.66,4.83,-223.25,-104.75,-410.0
163,2022-01-11 01:26:24.515486,26.0,58.6,997.0,20.0,1.44,-0.83,3.8,4.2,-2.52,4.76,-218.0,-103.25,-400.88
164,2022-01-11 01:26:24.577965,26.0,58.6,997.0,20.0,1.44,-0.83,3.8,4.2,-2.59,4.76,-224.5,-109.0,-417.25
165,2022-01-11 01:26:24.640743,26.0,57.8,997.0,20.0,1.44,-0.83,3.8,4.2,-2.59,4.76,-223.5,-97.0,-406.75
166,2022-01-11 01:26:24.702980,26.0,57.8,997.0,8190.0,1.44,-0.83,3.8,4.41,-2.66,4.9,-226.5,-103.25,-415.38
167,2022-01-11 01:26:24.749851,25.9,58.4,997.0,8190.0,1.44,-0.83,3.8,4.34,-2.73,4.76,-221.0,-102.0,-405.0
168,2022-01-11 01:26:24.796731,25.9,58.4,997.0,20.0,1.44,-0.83,3.8,4.06,-2.59,4.83,-213.5,-103.25,-406.63
169,2022-01-11 01:26:24.859504,26.0,58.3,997.0,157.0,1.44,-0.83,3.8,4.06,-2.59,4.83,-222.5,-107.5,-403.13
170,2022-01-11 01:26:24.921756,26.0,58.3,997.0,20.0,1.44,-0.83,3.8,4.48,-2.66,4.97,-224.0,-106.75,-424.75
171,2022-01-11 01:26:24.984254,26.0,58.3,997.0,130.0,1.44,-0.83,3.8,4.2,-2.73,4.76,-224.5,-105.75,-412.88
172,2022-01-11 01:26:25.046753,25.9,58.4,997.0,107.0,1.44,-0.83,3.8,4.27,-2.8,4.69,-222.25,-110.0,-406.13
173,2022-01-11 01:26:25.109251,25.9,58.4,997.0,136.0,1.44,-0.83,3.8,4.27,-2.8,4.69,-223.5,-111.75,-419.88
174,2022-01-11 01:26:25.171766,25.9,58.5,997.0,8190.0,1.44,-0.83,3.8,4.2,-3.01,4.76,-227.0,-106.0,-406.75
175,2022-01-11 01:26:25.218632,25.9,58.5,997.0,72.0,1.44,-0.83,3.8,4.34,-2.87,4.76,-222.5,-107.75,-401.63
176,2022-01-11 01:26:25.281143,25.9,58.4,997.0,146.0,1.44,-0.83,3.8,4.27,-2.8,4.76,-222.25,-107.0,-412.38
177,2022-01-11 01:26:25.343653,25.9,58.4,997.1,127.0,1.44,-0.83,3.8,4.27,-2.8,4.76,-223.0,-110.0,-420.13
178,2022-01-11 01:26:25.390525,25.9,58.4,997.1,8190.0,1.44,-0.83,3.8,4.27,-2.94,4.69,-229.25,-104.75,-403.75
179,2022-01-11 01:26:25.453035,26.1,58.8,997.0,104.0,1.44,-0.83,3.81,4.27,-2.8,4.55,-222.75,-111.0,-411.13
180,2022-01-11 01:26:25.515543,26.1,58.8,997.0,132.0,1.44,-0.83,3.81,4.27,-2.87,4.55,-227.25,-101.25,-405.88
181,2022-01-11 01:26:25.578037,25.9,58.7,997.0,150.0,1.44,-0.83,3.81,4.27,-2.87,4.55,-222.0,-108.0,-412.75
182,2022-01-11 01:26:25.640553,25.9,58.7,997.0,8190.0,1.44,-0.83,3.81,4.41,-2.87,4.69,-224.25,-113.5,-416.0
183,2022-01-11 01:26:25.687647,26.0,58.7,997.0,20.0,1.44,-0.83,3.8,4.13,-2.52,4.76,-219.75,-109.75,-419.88
184,2022-01-11 01:26:25.749938,26.0,58.2,997.0,99.0,1.44,-0.83,3.81,4.34,-2.8,4.69,-216.5,-102.5,-426.75
185,2022-01-11 01:26:25.812437,26.0,58.2,997.0,117.0,1.44,-0.83,3.81,4.34,-2.8,4.69,-222.0,-103.0,-403.88
186,2022-01-11 01:26:25.874950,25.9,58.5,997.0,8190.0,1.44,-0.83,3.8,4.13,-2.73,4.62,-221.75,-104.0,-413.0
187,2022-01-11 01:26:25.937444,25.9,58.5,997.0,20.0,1.44,-0.83,3.81,4.27,-2.87,4.55,-229.25,-104.0,-420.5
188,2022-01-11 01:26:25.999943,26.0,58.4,997.0,8190.0,1.44,-0.83,3.8,4.06,-2.8,4.69,-221.25,-106.0,-408.75
189,2022-01-11 01:26:26.062453,26.0,58.4,997.0,20.0,1.44,-0.83,3.8,4.06,-2.8,4.69,-226.75,-105.0,-411.13
190,2022-01-11 01:26:26.093699,26.0,58.4,997.0,88.0,1.44,-0.83,3.8,4.34,-2.73,4.76,-219.25,-108.75,-417.0
191,2022-01-11 01:26:26.156584,26.0,58.4,997.0,120.0,1.44,-0.83,3.8,4.2,-2.73,4.83,-229.75,-108.5,-408.13
192,2022-01-11 01:26:26.219092,26.0,58.4,997.0,20.0,1.44,-0.83,3.8,4.2,-2.73,4.83,-220.0,-106.5,-422.63
193,2022-01-11 01:26:26.282006,26.0,58.4,997.0,142.0,1.44,-0.83,3.8,4.13,-2.73,4.69,-226.5,-102.75,-399.13
194,2022-01-11 01:26:26.344101,26.0,58.4,997.0,20.0,1.44,-0.83,3.8,4.13,-2.73,4.62,-221.75,-104.75,-411.63
195,2022-01-11 01:26:26.406605,26.0,58.7,997.0,115.0,1.44,-0.83,3.8,4.27,-2.87,4.62,-221.75,-106.75,-427.75
196,2022-01-11 01:26:26.469092,26.0,58.7,997.0,122.0,1.44,-0.83,3.8,4.27,-2.87,4.62,-219.75,-103.25,-407.0
197,2022-01-11 01:26:26.531613,26.0,58.7,997.0,127.0,1.44,-0.83,3.8,4.2,-2.87,4.62,-220.0,-110.75,-416.0
198,2022-01-11 01:26:26.562849,26.0,58.4,997.0,107.0,1.44,-0.83,3.8,4.2,-2.45,4.69,-228.0,-107.25,-404.75
199,2022-01-11 01:26:26.625672,26.0,58.4,997.0,8190.0,1.44,-0.83,3.8,4.2,-2.73,4.76,-220.0,-111.5,-413.63
200,2022-01-11 01:26:26.688247,26.0,58.2,997.0,20.0,1.44,-0.83,3.8,4.2,-2.73,4.76,-218.5,-108.75,-406.75
201,2022-01-11 01:26:26.735136,26.0,58.2,997.0,8190.0,1.44,-0.83,3.8,4.13,-2.87,4.69,-227.25,-106.25,-409.5
202,2022-01-11 01:26:26.797587,26.1,58.2,997.0,8190.0,1.44,-0.83,3.79,3.99,-3.01,4.62,-225.25,-108.0,-417.38
203,2022-01-11 01:26:26.875380,26.1,57.2,997.0,8190.0,1.44,-0.83,3.79,3.92,-3.08,4.48,-227.0,-105.75,-408.25
204,2022-01-11 01:26:26.938200,26.1,57.2,997.0,8190.0,1.44,-0.83,3.79,3.92,-3.08,4.48,-223.25,-108.75,-416.25
205,2022-01-11 01:26:27.000395,26.0,58.7,997.0,20.0,1.44,-0.83,3.79,3.99,-2.87,4.69,-224.25,-110.0,-422.63
206,2022-01-11 01:26:27.031641,26.0,58.7,997.0,20.0,1.44,-0.83,3.79,3.92,-2.94,4.62,-224.25,-110.0,-416.25
207,2022-01-11 01:26:27.094148,26.0,58.6,997.0,145.0,1.44,-0.83,3.79,3.85,-2.94,4.62,-223.75,-107.25,-415.5
208,2022-01-11 01:26:27.156909,26.0,58.6,997.0,95.0,1.44,-0.83,3.79,3.85,-2.94,4.62,-224.5,-107.0,-411.0
209,2022-01-11 01:26:27.219158,26.0,58.6,997.0,8190.0,1.44,-0.83,3.79,3.5,-2.66,4.48,-226.0,-108.5,-411.75
210,2022-01-11 01:26:27.281887,26.0,58.6,997.0,8190.0,1.44,-0.83,3.79,3.36,-2.66,4.41,-222.5,-105.75,-421.75
211,2022-01-11 01:26:27.344163,26.0,58.6,997.0,153.0,1.44,-0.83,3.79,3.64,-2.8,4.55,-222.75,-101.75,-408.25
212,2022-01-11 01:26:27.406655,26.0,58.6,997.0,122.0,1.44,-0.83,3.79,3.64,-2.8,4.55,-220.0,-105.0,-416.25
213,2022-01-11 01:26:27.453533,26.0,58.6,997.0,20.0,1.44,-0.83,3.8,4.2,-2.66,4.62,-222.5,-106.5,-420.38
214,2022-01-11 01:26:27.500417,26.0,58.4,997.0,152.0,1.44,-0.83,3.79,3.71,-2.52,4.69,-222.25,-110.0,-416.63
215,2022-01-11 01:26:27.562910,26.0,58.4,997.0,20.0,1.44,-0.83,3.8,4.13,-2.73,4.9,-224.5,-106.25,-406.38
216,2022-01-11 01:26:27.625413,26.0,58.4,997.0,134.0,1.44,-0.83,3.8,4.13,-2.73,4.9,-225.75,-107.0,-411.5
217,2022-01-11 01:26:27.687917,25.9,58.1,997.0,121.0,1.44,-0.83,3.8,3.99,-2.8,4.76,-220.25,-104.75,-417.63
218,2022-01-11 01:26:27.750421,25.9,58.1,997.0,143.0,1.44,-0.83,3.8,4.13,-2.8,4.76,-230.5,-107.75,-402.63
219,2022-01-11 01:26:27.812925,25.9,58.1,997.0,20.0,1.44,-0.83,3.8,4.13,-2.8,4.76,-223.25,-116.25,-414.38
220,2022-01-11 01:26:27.875430,25.9,58.1,997.0,8190.0,1.44,-0.83,3.8,4.13,-2.8,4.76,-221.75,-107.75,-401.13
221,2022-01-11 01:26:27.922319,25.9,58.1,997.0,20.0,1.44,-0.83,3.8,4.2,-2.59,4.69,-220.0,-105.25,-408.5
222,2022-01-11 01:26:27.984823,25.8,58.4,997.0,20.0,1.44,-0.83,3.8,4.27,-2.73,4.76,-218.25,-103.5,-400.63
223,2022-01-11 01:26:28.047316,25.8,58.4,997.0,8190.0,1.44,-0.83,3.8,4.13,-2.8,4.69,-214.75,-102.0,-421.0
224,2022-01-11 01:26:28.109819,25.9,58.4,997.0,20.0,1.44,-0.83,3.8,4.13,-2.8,4.69,-220.0,-105.5,-421.13
225,2022-01-11 01:26:28.172329,25.9,58.4,997.0,8190.0,1.44,-0.83,3.8,4.13,-2.73,4.69,-212.0,-104.0,-417.63
226,2022-01-11 01:26:28.219213,26.0,58.7,997.0,20.0,1.44,-0.83,3.8,4.34,-2.66,4.76,-220.75,-104.25,-426.63
227,2022-01-11 01:26:28.281705,26.0,58.7,997.0,8190.0,1.44,-0.83,3.8,4.34,-2.66,4.76,-226.0,-106.75,-406.25
228,2022-01-11 01:26:28.328595,26.0,58.7,997.0,20.0,1.44,-0.83,3.81,4.41,-2.87,4.76,-217.25,-105.0,-415.38
229,2022-01-11 01:26:28.391095,26.0,58.4,997.0,131.0,1.44,-0.83,3.8,4.34,-2.52,4.69,-219.25,-111.0,-406.0
230,2022-01-11 01:26:28.453613,26.0,58.4,997.0,20.0,1.44,-0.83,3.8,4.34,-2.73,4.69,-219.5,-114.5,-417.63
231,2022-01-11 01:26:28.516115,26.0,58.7,997.0,20.0,1.44,-0.83,3.8,4.34,-2.73,4.69,-225.5,-106.25,-408.38
232,2022-01-11 01:26:28.562989,26.0,58.7,997.0,8190.0,1.44,-0.83,3.8,4.27,-2.73,4.48,-222.75,-109.75,-414.38
233,2022-01-11 01:26:28.625492,25.9,58.5,997.0,108.0,1.44,-0.83,3.8,4.41,-2.87,4.55,-229.75,-105.0,-409.0
234,2022-01-11 01:26:28.688224,25.9,58.5,997.1,107.0,1.44,-0.83,3.8,4.27,-2.87,4.69,-227.5,-109.25,-408.63
235,2022-01-11 01:26:28.750504,25.9,58.5,997.1,125.0,1.44,-0.83,3.8,4.27,-2.87,4.69,-229.0,-109.5,-417.13
236,2022-01-11 01:26:28.797358,26.0,58.5,997.0,20.0,1.44,-0.83,3.8,4.27,-2.8,4.83,-224.5,-102.5,-413.88
237,2022-01-11 01:26:28.859880,26.0,58.5,997.0,8190.0,1.44,-0.83,3.8,4.13,-2.87,4.69,-218.5,-106.25,-423.0
238,2022-01-11 01:26:28.922366,25.9,58.3,997.0,119.0,1.44,-0.83,3.8,4.27,-2.73,4.62,-222.75,-107.75,-402.38
239,2022-01-11 01:26:28.984872,25.9,58.3,997.0,136.0,1.44,-0.83,3.8,4.27,-2.73,4.62,-219.25,-104.25,-401.13
240,2022-01-11 01:26:29.047392,25.9,58.3,997.0,20.0,1.44,-0.83,3.8,4.13,-2.87,4.76,-221.0,-109.75,-405.63
241,2022-01-11 01:26:29.109896,26.1,59.0,997.0,101.0,1.44,-0.83,3.8,4.2,-2.66,4.76,-222.75,-110.75,-416.25
242,2022-01-11 01:26:29.172395,26.1,59.0,997.0,128.0,1.44,-0.83,3.8,4.27,-2.73,4.69,-224.0,-102.5,-407.88
243,2022-01-11 01:26:29.234904,25.9,58.3,997.0,114.0,1.44,-0.83,3.8,4.27,-2.73,4.69,-218.75,-111.5,-409.25
244,2022-01-11 01:26:29.266140,25.9,58.3,997.0,143.0,1.44,-0.83,3.8,4.2,-2.59,4.69,-223.5,-110.25,-402.25
245,2022-01-11 01:26:29.328655,26.0,58.4,997.0,122.0,1.44,-0.83,3.8,4.06,-2.8,5.04,-223.0,-115.0,-407.88
246,2022-01-11 01:26:29.391159,26.0,58.4,997.0,20.0,1.44,-0.83,3.79,4.06,-2.8,4.55,-222.0,-109.5,-412.5
247,2022-01-11 01:26:29.438031,26.0,58.4,997.0,155.0,1.44,-0.83,3.79,4.06,-2.8,4.55,-216.75,-114.5,-407.75
248,2022-01-11 01:26:29.516167,26.1,58.2,997.0,20.0,1.44,-0.83,3.8,4.2,-2.94,4.55,-222.5,-109.75,-413.0
249,2022-01-11 01:26:29.578671,26.1,58.2,997.0,118.0,1.44,-0.83,3.79,4.06,-2.8,4.69,-224.0,-98.0,-401.88
250,2022-01-11 01:26:29.641165,26.0,58.4,997.0,20.0,1.44,-0.83,3.79,3.99,-2.87,4.62,-220.5,-110.75,-412.63
251,2022-01-11 01:26:29.688041,26.0,58.4,997.0,127.0,1.44,-0.83,3.79,3.99,-2.87,4.62,-225.0,-103.5,-399.25
252,2022-01-11 01:26:29.734931,26.1,58.3,997.0,162.0,1.44,-0.83,3.79,3.99,-2.94,4.69,-218.5,-109.5,-420.63
253,2022-01-11 01:26:29.797441,26.1,58.3,997.0,20.0,1.44,-0.83,3.79,4.06,-2.87,4.76,-220.75,-107.75,-414.88
254,2022-01-11 01:26:29.859945,26.1,58.3,997.0,20.0,1.44,-0.83,3.79,4.06,-2.87,4.69,-223.25,-105.75,-410.13
255,2022-01-11 01:26:29.922687,26.1,58.2,997.0,123.0,1.44,-0.83,3.79,4.06,-2.87,4.69,-224.5,-105.75,-410.13
256,2022-01-11 01:26:29.984952,26.1,58.2,997.0,137.0,1.44,-0.83,3.79,3.99,-2.8,4.62,-219.5,-102.5,-397.75
257,2022-01-11 01:26:30.047456,26.0,57.9,997.0,113.0,1.44,-0.83,3.79,4.06,-2.8,4.62,-220.0,-110.5,-412.75
258,2022-01-11 01:26:30.109949,26.0,57.9,997.0,8190.0,1.44,-0.83,3.79,3.92,-2.73,4.76,-222.25,-107.75,-403.0
259,2022-01-11 01:26:30.156825,26.0,57.9,997.0,156.0,1.44,-0.83,3.79,3.92,-2.73,4.76,-217.75,-109.5,-409.75
260,2022-01-11 01:26:30.219322,26.0,57.5,997.0,20.0,1.44,-0.83,3.79,3.99,-2.94,4.76,-215.5,-105.0,-405.63
261,2022-01-11 01:26:30.281839,26.0,57.5,997.0,8190.0,1.44,-0.83,3.79,4.06,-2.8,4.55,-221.25,-100.75,-416.13
262,2022-01-11 01:26:30.328717,26.0,58.0,997.0,8190.0,1.44,-0.83,3.79,4.06,-2.8,4.55,-225.5,-101.75,-405.88
263,2022-01-11 01:26:30.391221,26.0,58.0,997.0,99.0,1.44,-0.83,3.79,4.06,-2.8,4.76,-224.25,-105.0,-415.25
264,2022-01-11 01:26:30.453725,26.2,58.4,997.0,20.0,1.44,-0.83,3.79,3.99,-3.01,4.69,-221.75,-108.0,-411.25
265,2022-01-11 01:26:30.516223,26.2,58.4,997.0,20.0,1.44,-0.83,3.8,3.99,-3.01,4.76,-220.25,-101.75,-414.38
266,2022-01-11 01:26:30.579096,26.2,58.4,997.0,20.0,1.44,-0.83,3.8,3.99,-3.01,4.76,-221.75,-106.5,-417.13
267,2022-01-11 01:26:30.625605,26.1,58.1,997.0,130.0,1.44,-0.83,3.8,4.06,-2.94,4.83,-225.0,-106.25,-405.63
268,2022-01-11 01:26:30.672477,26.1,58.1,997.0,138.0,1.44,-0.83,3.8,4.13,-2.73,4.83,-222.5,-110.75,-421.88
269,2022-01-11 01:26:30.750624,26.0,58.1,997.0,20.0,1.44,-0.83,3.8,4.13,-2.87,4.69,-222.25,-106.75,-414.13
270,2022-01-11 01:26:30.813110,26.0,58.1,997.0,150.0,1.44,-0.83,3.8,4.13,-2.87,4.69,-224.25,-108.0,-425.75
271,2022-01-11 01:26:30.860001,26.1,58.3,997.0,106.0,1.44,-0.83,3.8,4.2,-2.8,4.76,-224.25,-101.0,-410.5
272,2022-01-11 01:26:30.922774,26.1,58.3,997.0,20.0,1.44,-0.83,3.81,4.27,-2.87,4.69,-221.5,-106.0,-420.63
273,2022-01-11 01:26:30.985587,26.1,58.3,997.0,102.0,1.44,-0.83,3.8,4.13,-2.45,4.76,-222.75,-104.5,-415.38
274,2022-01-11 01:26:31.031892,26.0,58.1,997.0,20.0,1.44,-0.83,3.8,4.13,-2.45,4.76,-220.5,-111.25,-413.0
275,2022-01-11 01:26:31.094391,26.0,58.1,997.0,133.0,1.44,-0.83,3.8,4.62,-2.59,4.83,-228.25,-108.0,-414.0
276,2022-01-11 01:26:31.156884,26.0,58.4,997.0,20.0,1.44,-0.83,3.8,4.2,-2.66,4.62,-219.25,-111.75,-424.25
277,2022-01-11 01:26:31.219404,26.0,58.4,997.0,20.0,1.44,-0.83,3.8,4.41,-2.73,4.69,-224.5,-114.75,-418.88
278,2022-01-11 01:26:31.281909,26.0,58.4,997.0,125.0,1.44,-0.83,3.8,4.41,-2.73,4.69,-227.0,-114.5,-412.63
279,2022-01-11 01:26:31.329003,26.1,58.1,997.0,8190.0,1.44,-0.83,3.8,4.27,-2.8,4.62,-224.25,-114.75,-417.5
280,2022-01-11 01:26:31.391289,26.1,58.1,997.0,20.0,1.44,-0.83,3.8,4.41,-2.8,4.76,-226.0,-102.25,-413.0
281,2022-01-11 01:26:31.454139,26.0,58.0,997.1,20.0,1.44,-0.83,3.8,4.2,-2.8,4.76,-219.5,-111.0,-432.13
282,2022-01-11 01:26:31.516298,26.0,58.0,997.0,20.0,1.44,-0.83,3.8,4.2,-2.8,4.76,-219.0,-105.0,-412.0
283,2022-01-11 01:26:31.563157,26.0,58.1,997.0,99.0,1.44,-0.83,3.8,4.27,-2.87,4.69,-220.25,-111.5,-423.63
284,2022-01-11 01:26:31.625667,26.0,58.1,997.0,87.0,1.44,-0.83,3.8,4.06,-2.87,4.69,-218.25,-102.0,-409.25
285,2022-01-11 01:26:31.688182,26.0,58.1,997.0,8190.0,1.44,-0.83,3.8,4.55,-2.66,4.83,-220.25,-104.25,-421.63
286,2022-01-11 01:26:31.735049,26.1,58.2,997.0,20.0,1.44,-0.83,3.8,4.55,-2.66,4.83,-224.25,-108.5,-418.5
287,2022-01-11 01:26:31.813185,26.1,58.2,997.0,136.0,1.44,-0.83,3.8,4.41,-2.8,4.76,-219.75,-108.25,-419.75
288,2022-01-11 01:26:31.875683,26.0,58.2,997.0,20.0,1.44,-0.83,3.8,4.06,-2.52,4.76,-225.5,-103.25,-425.25
289,2022-01-11 01:26:31.938181,26.0,58.2,997.0,20.0,1.44,-0.83,3.8,4.34,-2.73,4.83,-223.0,-106.75,-415.38
290,2022-01-11 01:26:31.985076,26.1,58.2,997.0,149.0,1.44,-0.83,3.8,4.34,-2.73,4.83,-219.75,-109.25,-426.88
291,2022-01-11 01:26:32.031943,26.1,58.4,997.0,148.0,1.44,-0.83,3.8,4.2,-2.94,4.62,-222.75,-103.25,-410.5
292,2022-01-11 01:26:32.094458,26.1,58.4,997.0,8190.0,1.44,-0.83,3.8,4.27,-2.87,4.76,-226.5,-102.25,-412.25
293,2022-01-11 01:26:32.172570,26.0,58.2,997.0,106.0,1.44,-0.83,3.8,4.2,-2.8,4.62,-225.25,-107.0,-408.63
294,2022-01-11 01:26:32.219724,26.0,58.2,997.0,130.0,1.44,-0.83,3.8,4.2,-2.8,4.62,-214.75,-109.25,-427.0
295,2022-01-11 01:26:32.281965,26.0,58.1,997.0,20.0,1.44,-0.83,3.8,4.2,-2.73,4.83,-256.0,-105.0,-413.5
296,2022-01-11 01:26:32.344474,26.0,58.1,997.0,8190.0,1.44,-0.83,3.8,4.27,-2.73,4.62,-219.0,-106.75,-414.5
297,2022-01-11 01:26:32.375708,26.0,58.1,997.0,139.0,1.44,-0.83,3.8,4.27,-2.73,4.62,-223.75,-105.0,-413.88
298,2022-01-11 01:26:32.454104,26.1,58.0,997.0,116.0,1.44,-0.83,3.8,4.2,-2.59,4.62,-221.75,-106.0,-415.25
299,2022-01-11 01:26:32.500734,26.1,58.0,997.0,8190.0,1.44,-0.83,3.8,4.06,-2.66,4.69,-226.25,-108.5,-409.13
300,2022-01-11 01:26:32.563240,26.0,58.5,997.0,156.0,1.44,-0.83,3.8,4.06,-2.66,4.69,-219.25,-105.25,-405.88
301,2022-01-11 01:26:32.625965,26.0,58.5,997.0,20.0,1.44,-0.83,3.8,4.06,-2.66,4.69,-217.0,-104.5,-419.63
302,2022-01-11 01:26:32.688231,26.1,58.2,997.0,138.0,1.44,-0.83,3.8,4.13,-2.94,4.69,-225.25,-99.75,-397.75
303,2022-01-11 01:26:32.750752,26.1,58.2,997.0,20.0,1.44,-0.83,3.8,3.99,-2.59,4.76,-218.5,-107.0,-418.88
304,2022-01-11 01:26:32.813259,26.1,58.2,997.0,20.0,1.44,-0.83,3.8,4.27,-2.73,4.69,-222.25,-108.0,-406.88
305,2022-01-11 01:26:32.860136,26.1,58.2,997.0,20.0,1.44,-0.83,3.8,4.27,-2.73,4.69,-221.25,-112.75,-417.88
306,2022-01-11 01:26:32.906998,26.1,58.2,997.0,114.0,1.44,-0.83,3.8,3.99,-2.8,4.62,-223.25,-109.5,-418.13
307,2022-01-11 01:26:32.969500,26.0,57.9,997.0,145.0,1.44,-0.83,3.8,4.06,-2.94,4.69,-224.25,-109.75,-410.13
308,2022-01-11 01:26:33.031999,26.0,57.9,997.0,20.0,1.44,-0.83,3.8,3.78,-3.08,4.48,-225.5,-113.0,-414.5
309,2022-01-11 01:26:33.094505,26.0,57.9,997.0,20.0,1.44,-0.83,3.8,3.78,-3.08,4.48,-226.75,-103.0,-407.13
310,2022-01-11 01:26:33.157024,26.0,58.5,997.0,152.0,1.44,-0.83,3.8,3.92,-3.08,4.48,-221.75,-101.25,-413.0
311,2022-01-11 01:26:33.219517,26.0,58.5,997.0,20.0,1.44,-0.83,3.8,3.92,-3.01,4.55,-223.0,-104.25,-414.0
312,2022-01-11 01:26:33.282021,26.1,58.2,997.0,145.0,1.44,-0.83,3.8,3.99,-2.8,4.48,-222.75,-105.75,-413.75
313,2022-01-11 01:26:33.328893,26.1,58.2,997.0,145.0,1.44,-0.83,3.8,3.99,-2.8,4.48,-221.25,-104.25,-399.63
314,2022-01-11 01:26:33.375777,26.0,58.2,997.0,20.0,1.44,-0.83,3.8,3.92,-2.94,4.62,-222.0,-116.5,-418.75
315,2022-01-11 01:26:33.453907,26.0,58.2,997.1,140.0,1.44,-0.83,3.8,3.99,-2.8,4.69,-224.0,-106.75,-410.5
316,2022-01-11 01:26:33.516407,26.0,58.2,997.1,138.0,1.44,-0.83,3.81,4.06,-2.66,4.69,-215.75,-115.5,-419.63
317,2022-01-11 01:26:33.563300,26.1,57.9,997.0,20.0,1.44,-0.83,3.81,4.06,-2.66,4.69,-220.75,-100.25,-411.63
318,2022-01-11 01:26:33.625803,26.1,57.9,997.0,137.0,1.44,-0.83,3.8,3.92,-2.59,4.76,-217.75,-112.25,-411.13
319,2022-01-11 01:26:33.688303,26.0,58.1,997.0,128.0,1.44,-0.83,3.8,4.27,-2.73,4.9,-220.25,-100.0,-418.5
320,2022-01-11 01:26:33.750797,26.0,58.1,997.0,135.0,1.44,-0.83,3.8,4.2,-2.59,4.62,-225.5,-109.5,-405.25
321,2022-01-11 01:26:33.797685,26.1,58.2,997.0,92.0,1.44,-0.83,3.8,4.2,-2.59,4.62,-217.25,-108.75,-416.75
322,2022-01-11 01:26:33.860183,26.1,58.2,997.0,150.0,1.44,-0.83,3.8,4.2,-2.66,4.83,-220.75,-112.0,-408.25
323,2022-01-11 01:26:33.922693,26.1,58.2,997.0,146.0,1.44,-0.83,3.8,4.41,-2.73,4.62,-220.25,-114.5,-429.88
324,2022-01-11 01:26:33.969571,26.1,57.9,997.0,118.0,1.44,-0.83,3.8,4.2,-2.73,4.69,-216.5,-114.5,-405.5
325,2022-01-11 01:26:34.032082,26.1,57.9,997.0,20.0,1.44,-0.83,3.8,4.2,-2.73,4.69,-219.25,-108.0,-418.88
326,2022-01-11 01:26:34.094585,26.0,58.2,997.0,20.0,1.44,-0.83,3.8,4.2,-2.8,4.62,-227.75,-108.25,-413.0
327,2022-01-11 01:26:34.157089,26.0,58.2,997.0,146.0,1.44,-0.83,3.81,4.27,-2.8,4.69,-223.25,-105.25,-422.0
328,2022-01-11 01:26:34.203962,26.1,58.2,997.0,113.0,1.44,-0.83,3.8,4.27,-2.8,4.69,-223.0,-106.0,-415.25
329,2022-01-11 01:26:34.266472,26.1,58.7,997.0,20.0,1.44,-0.83,3.8,3.99,-2.8,4.76,-224.5,-107.5,-413.88
330,2022-01-11 01:26:34.328972,26.1,58.7,997.0,8190.0,1.44,-0.83,3.81,4.13,-2.94,4.69,-218.5,-109.5,-431.13
331,2022-01-11 01:26:34.391465,26.1,58.3,997.0,117.0,1.44,-0.83,3.8,4.13,-2.8,4.69,-222.25,-105.5,-411.88
332,2022-01-11 01:26:34.453975,26.1,58.3,997.0,8190.0,1.44,-0.83,3.8,4.13,-2.8,4.69,-222.0,-103.75,-416.25
333,2022-01-11 01:26:34.516468,26.1,58.1,997.0,121.0,1.44,-0.83,3.8,3.99,-2.73,4.69,-229.0,-104.25,-406.38
334,2022-01-11 01:26:34.578972,26.1,58.1,997.0,20.0,1.44,-0.83,3.8,4.2,-2.73,4.69,-230.0,-112.75,-411.75
335,2022-01-11 01:26:34.642094,26.1,58.1,997.0,8190.0,1.44,-0.83,3.8,4.2,-2.87,4.69,-223.5,-107.5,-417.13
336,2022-01-11 01:26:34.688366,26.1,58.3,997.0,8190.0,1.44,-0.83,3.8,4.2,-2.87,4.69,-224.25,-108.25,-430.13
337,2022-01-11 01:26:34.735244,26.1,58.3,997.0,20.0,1.44,-0.83,3.8,4.27,-2.8,4.62,-227.75,-107.25,-408.5
338,2022-01-11 01:26:34.797752,26.0,58.1,997.0,157.0,1.44,-0.83,3.8,4.2,-2.8,4.69,-216.25,-105.0,-409.0
339,2022-01-11 01:26:34.860252,26.0,58.1,997.0,20.0,1.44,-0.83,3.8,4.34,-2.87,4.76,-226.0,-110.25,-415.25
340,2022-01-11 01:26:34.922750,26.2,57.7,997.0,101.0,1.44,-0.83,3.8,4.34,-2.87,4.76,-221.25,-105.75,-412.63
341,2022-01-11 01:26:34.985248,26.2,57.7,997.0,8190.0,1.44,-0.83,3.8,4.34,-2.8,4.69,-216.75,-112.0,-421.75
342,2022-01-11 01:26:35.047763,26.2,57.7,997.0,163.0,1.44,-0.83,3.8,4.27,-2.66,4.69,-224.0,-110.25,-408.75
343,2022-01-11 01:26:35.079015,26.1,58.2,997.0,20.0,1.44,-0.83,3.8,4.2,-2.87,4.55,-217.5,-111.0,-420.63
344,2022-01-11 01:26:35.141525,26.1,58.2,997.0,149.0,1.44,-0.83,3.8,4.2,-2.87,4.55,-225.25,-100.25,-417.75
345,2022-01-11 01:26:35.204018,26.1,58.1,997.0,148.0,1.44,-0.83,3.8,3.99,-2.73,4.69,-220.0,-106.5,-419.25
346,2022-01-11 01:26:35.266533,26.1,58.1,997.0,132.0,1.44,-0.83,3.8,4.27,-2.73,4.76,-223.5,-106.0,-416.5
347,2022-01-11 01:26:35.329486,26.1,58.1,997.0,120.0,1.44,-0.83,3.8,4.06,-2.66,4.62,-219.0,-112.75,-424.63
348,2022-01-11 01:26:35.391541,26.1,57.6,997.0,20.0,1.44,-0.83,3.8,4.06,-2.66,4.62,-225.75,-107.5,-419.13
349,2022-01-11 01:26:35.454041,26.1,57.6,997.0,8190.0,1.44,-0.83,3.8,4.34,-2.73,4.62,-220.75,-109.5,-418.25
350,2022-01-11 01:26:35.516553,26.1,57.9,997.0,8190.0,1.44,-0.83,3.8,4.2,-2.87,4.62,-222.5,-106.25,-421.13
351,2022-01-11 01:26:35.563426,26.1,57.9,997.0,99.0,1.44,-0.83,3.8,4.13,-2.73,4.69,-220.75,-103.25,-410.63
352,2022-01-11 01:26:35.625914,26.1,57.9,997.0,158.0,1.44,-0.83,3.8,4.13,-2.73,4.69,-226.5,-105.25,-430.38
353,2022-01-11 01:26:35.672797,26.1,57.9,997.0,20.0,1.44,-0.83,3.8,4.13,-2.8,4.55,-219.0,-106.5,-422.88
354,2022-01-11 01:26:35.735313,26.1,57.9,997.0,8190.0,1.44,-0.83,3.79,4.06,-2.87,4.62,-218.25,-107.0,-421.63
355,2022-01-11 01:26:35.797810,26.1,57.8,997.0,20.0,1.44,-0.83,3.79,4.13,-2.8,4.55,-226.5,-100.75,-412.5
356,2022-01-11 01:26:35.875928,26.1,57.8,997.0,131.0,1.44,-0.83,3.79,4.13,-2.8,4.55,-225.0,-104.25,-424.75
357,2022-01-11 01:26:35.922806,26.1,58.0,997.0,122.0,1.44,-0.83,3.79,4.13,-2.94,4.69,-224.25,-106.5,-420.38
358,2022-01-11 01:26:35.985328,26.1,58.0,997.0,130.0,1.44,-0.83,3.79,4.13,-2.73,4.83,-227.5,-110.5,-417.75
359,2022-01-11 01:26:36.032205,26.0,57.8,997.0,161.0,1.44,-0.83,3.79,4.06,-2.8,4.62,-226.0,-110.5,-416.63
360,2022-01-11 01:26:36.094704,26.0,57.8,997.0,96.0,1.44,-0.83,3.79,4.06,-2.8,4.62,-220.25,-103.25,-415.63
361,2022-01-11 01:26:36.157196,26.0,57.8,997.0,107.0,1.44,-0.83,3.79,3.85,-2.94,4.62,-223.5,-105.25,-424.63
362,2022-01-11 01:26:36.219701,26.0,58.0,997.0,8190.0,1.44,-0.83,3.79,3.57,-3.08,4.55,-223.5,-105.75,-415.0
363,2022-01-11 01:26:36.266580,26.0,58.0,997.0,117.0,1.44,-0.83,3.79,3.57,-3.08,4.55,-223.0,-109.0,-416.38
364,2022-01-11 01:26:36.329081,26.0,58.1,997.0,97.0,1.44,-0.83,3.79,4.06,-2.8,4.83,-222.25,-101.5,-414.88
365,2022-01-11 01:26:36.391586,26.0,58.1,997.0,94.0,1.44,-0.83,3.79,4.41,-3.22,4.69,-220.0,-109.0,-422.88
366,2022-01-11 01:26:36.438476,26.0,58.1,997.0,20.0,1.44,-0.83,3.79,3.71,-2.87,4.62,-225.0,-101.25,-407.63
367,2022-01-11 01:26:36.501624,26.0,56.9,997.0,137.0,1.44,-0.83,3.79,3.71,-2.87,4.62,-220.25,-114.5,-412.13
368,2022-01-11 01:26:36.563484,26.0,56.9,997.0,8190.0,1.44,-0.83,3.79,4.2,-2.8,4.83,-226.5,-102.0,-420.13
369,2022-01-11 01:26:36.625977,26.1,57.9,997.0,20.0,1.44,-0.83,3.79,4.06,-2.73,4.62,-223.5,-109.5,-419.63
370,2022-01-11 01:26:36.688495,26.1,57.9,997.0,125.0,1.44,-0.83,3.79,3.92,-2.87,4.62,-225.5,-111.5,-422.13
371,2022-01-11 01:26:36.735357,26.1,58.0,997.0,20.0,1.44,-0.83,3.79,3.92,-2.87,4.62,-222.25,-113.0,-419.5
372,2022-01-11 01:26:36.813489,26.1,58.0,997.0,111.0,1.44,-0.83,3.79,3.92,-3.08,4.69,-218.0,-102.25,-404.25
373,2022-01-11 01:26:36.876231,26.1,58.0,997.0,20.0,1.44,-0.83,3.79,3.43,-2.59,4.41,-219.75,-111.75,-408.13
374,2022-01-11 01:26:36.922886,26.2,58.0,997.0,154.0,1.43,-0.84,3.79,3.43,-2.73,4.2,-217.75,-103.0,-416.25
375,2022-01-11 01:26:36.969753,26.2,58.0,997.0,8190.0,1.43,-0.84,3.79,3.43,-2.73,4.2,-226.0,-107.0,-415.5
376,2022-01-11 01:26:37.032273,26.2,57.9,997.0,105.0,1.44,-0.84,3.79,5.32,-3.36,4.06,-217.0,-110.25,-420.38
377,2022-01-11 01:26:37.094773,26.2,57.9,997.0,143.0,1.45,-0.82,3.8,4.83,-4.27,3.99,-228.0,-107.75,-406.63
378,2022-01-11 01:26:37.157277,26.2,58.3,997.0,8190.0,1.44,-0.82,3.79,2.17,-4.55,4.62,-213.75,-104.75,-408.5
379,2022-01-11 01:26:37.219761,26.2,58.3,997.0,20.0,1.44,-0.82,3.79,2.17,-4.55,4.62,-219.25,-111.5,-426.5
380,2022-01-11 01:26:37.282265,26.2,58.3,997.0,138.0,1.44,-0.84,3.79,2.52,-3.08,3.78,-217.5,-106.25,-409.5
381,2022-01-11 01:26:37.344771,26.1,58.2,997.0,20.0,1.45,-0.83,3.8,4.41,-3.08,4.2,-227.0,-116.0,-425.5
382,2022-01-11 01:26:37.376033,26.1,58.2,997.0,20.0,1.44,-0.83,3.79,3.85,-2.73,4.69,-223.75,-109.0,-414.88
383,2022-01-11 01:26:37.438543,26.1,57.8,997.0,114.0,1.44,-0.83,3.79,3.85,-2.73,4.69,-219.75,-102.5,-419.5
384,2022-01-11 01:26:37.501031,26.1,57.8,997.0,113.0,1.45,-0.83,3.8,4.41,-2.59,4.48,-220.5,-94.0,-411.75
385,2022-01-11 01:26:37.563545,26.1,57.8,997.0,20.0,1.44,-0.83,3.79,3.57,-2.03,4.9,-218.75,-109.75,-426.0
386,2022-01-11 01:26:37.626055,26.1,57.8,997.0,118.0,1.44,-0.83,3.8,3.99,-2.45,4.76,-222.5,-104.75,-420.38
387,2022-01-11 01:26:37.688548,26.1,57.8,997.0,154.0,1.44,-0.83,3.8,3.99,-2.45,4.76,-217.5,-110.25,-412.25
388,2022-01-11 01:26:37.751052,26.1,58.0,997.0,125.0,1.44,-0.83,3.79,3.85,-2.24,5.18,-219.25,-115.5,-424.63
389,2022-01-11 01:26:37.813561,26.1,58.0,997.0,8190.0,1.44,-0.83,3.79,4.2,-2.38,5.11,-210.75,-117.5,-418.0
390,2022-01-11 01:26:37.844814,26.2,58.1,997.0,105.0,1.46,-0.82,3.81,-1.96,-0.98,2.59,-225.75,-105.0,-420.13
391,2022-01-11 01:26:37.907306,26.2,58.1,997.0,20.0,1.46,-0.82,3.81,-1.96,-0.98,2.59,-221.75,-108.0,-414.88
392,2022-01-11 01:26:37.969822,26.2,58.1,997.0,8190.0,1.41,-0.88,3.8,-24.43,27.02,-2.66,-224.0,-102.25,-417.88
393,2022-01-11 01:26:38.016694,25.9,58.0,997.0,20.0,1.39,-0.86,3.77,5.04,13.72,7.7,-223.0,-110.25,-413.38
394,2022-01-11 01:26:38.094830,25.9,58.0,997.0,20.0,1.44,-0.83,3.81,17.08,-19.88,4.06,-222.25,-110.0,-425.88
395,2022-01-11 01:26:38.157322,26.2,57.8,997.0,8190.0,1.44,-0.83,3.81,17.08,-19.88,4.06,-224.75,-109.5,-413.25
396,2022-01-11 01:26:38.345102,26.2,57.8,997.0,106.0,1.43,-0.84,3.79,4.41,-3.15,4.34,-217.25,-106.75,-422.88
397,2022-01-11 01:26:38.360721,26.2,57.8,997.0,142.0,1.43,-0.84,3.8,4.27,-9.59,2.38,-214.75,-106.5,-415.63
398,2022-01-11 01:26:38.391985,26.2,57.8,997.0,124.0,1.43,-0.84,3.79,5.11,-7.35,3.64,-224.0,-105.0,-422.75
399,2022-01-11 01:26:38.438859,26.2,58.1,997.0,8190.0,1.43,-0.84,3.79,5.46,-3.01,5.18,-214.0,-112.25,-419.75
400,2022-01-11 01:26:38.501365,26.2,58.1,997.0,20.0,1.43,-0.84,3.77,8.05,-11.55,4.55,-226.0,-105.25,-408.5
401,2022-01-11 01:26:38.563868,26.2,58.3,997.0,140.0,1.43,-0.84,3.77,8.05,-11.55,4.55,-215.75,-107.25,-422.5
402,2022-01-11 01:26:38.641995,26.2,58.3,997.0,20.0,1.47,-0.83,3.78,24.5,-45.92,3.08,-216.5,-101.75,-420.88
403,2022-01-11 01:26:38.688879,26.2,58.3,997.0,154.0,1.49,-0.81,3.78,26.74,-44.73,5.25,-217.0,-105.0,-410.63
404,2022-01-11 01:26:38.735750,26.4,58.0,997.0,151.0,1.5,-0.81,3.76,14.7,-26.18,4.83,-216.25,-104.0,-425.5
405,2022-01-11 01:26:38.798255,26.4,58.0,997.0,211.0,1.5,-0.81,3.76,14.7,-26.18,4.83,-214.5,-101.75,-420.63
406,2022-01-11 01:26:38.860759,26.2,58.1,997.0,188.0,1.54,-0.79,3.72,24.5,-50.05,4.76,-204.0,-107.5,-423.63
407,2022-01-11 01:26:38.923257,26.2,58.1,997.0,222.0,1.6,-0.76,3.72,59.29,-119.63,9.1,-205.0,-99.75,-413.75
408,2022-01-11 01:26:38.970141,26.1,58.0,997.0,20.0,1.69,-0.74,3.76,54.88,-121.38,7.0,-194.25,-98.5,-421.0
409,2022-01-11 01:26:39.032640,26.1,58.0,997.0,231.0,1.69,-0.74,3.76,54.88,-121.38,7.0,-203.0,-103.0,-422.63
410,2022-01-11 01:26:39.095142,26.1,58.0,997.0,20.0,1.7,-0.73,3.7,14.21,-26.95,5.53,-198.25,-100.75,-416.38
411,2022-01-11 01:26:39.142016,26.2,58.2,997.0,20.0,1.69,-0.72,3.68,14.7,-18.97,6.65,-193.0,-100.0,-431.88
412,2022-01-11 01:26:39.204531,26.2,58.2,997.0,242.0,1.74,-0.7,3.62,33.74,-62.37,7.42,-189.5,-96.5,-414.88
413,2022-01-11 01:26:39.267034,26.2,58.0,997.0,8190.0,1.74,-0.7,3.62,33.74,-62.37,7.42,-189.5,-96.25,-428.75
414,2022-01-11 01:26:39.329539,26.2,58.0,997.0,8190.0,1.83,-0.65,3.66,77.49,-136.36,15.26,-184.0,-95.0,-424.38
